sep=;
ACCELEROMETER X (m/s²);ACCELEROMETER Y (m/s²);ACCELEROMETER Z (m/s²);GRAVITY X (m/s²);GRAVITY Y (m/s²);GRAVITY Z (m/s²);LINEAR ACCELERATION X (m/s²);LINEAR ACCELERATION Y (m/s²);LINEAR ACCELERATION Z (m/s²);GYROSCOPE X (rad/s);GYROSCOPE Y (rad/s);GYROSCOPE Z (rad/s);LIGHT (lux);MAGNETIC FIELD X (μT);MAGNETIC FIELD Y (μT);MAGNETIC FIELD Z (μT);ORIENTATION Z (azimuth °);ORIENTATION X (pitch °);ORIENTATION Y (roll °);PROXIMITY (m);SOUND LEVEL (dB);LOCATION Latitude : ;LOCATION Longitude : ;LOCATION Altitude ( m);LOCATION Altitude-google ( m);LOCATION Speed ( Kmh);LOCATION Accuracy ( m);LOCATION ORIENTATION (°);Satellites in range;Time since start in ms ;YYYY-MO-DD HH-MI-SS_SSS
-0.514;1.752;9.56;1.7334;0.6129;9.6343;-0.123;0.0885;-0.0685;-0.0498;-0.0726;-0.043;125.0;-24.79;-32.29;-35.29;148.62;-1.99;-9.79;5.0;30.135;39.468952;-0.340972;69.4;NaN;;15.076;;0 / 19;5;2021-10-20 21:02:52:412
-0.603;1.7321;9.3491;1.7334;0.6129;9.6343;0.1285;0.0177;0.2624;-0.0373;-0.0494;-0.0322;125.0;-24.79;-32.29;-35.29;148.62;-1.99;-9.79;5.0;30.135;39.468952;-0.340972;69.4;NaN;;15.076;;0 / 19;25;2021-10-20 21:02:52:432
-0.603;1.7321;9.3491;1.8914;0.6081;9.6055;0.1285;0.0177;0.2624;-0.0373;-0.0494;-0.0322;236.0;-24.79;-32.51;-35.04;149.78;-3.55;-11.14;5.0;30.135;39.468952;-0.340972;69.4;NaN;;15.076;;0 / 19;44;2021-10-20 21:02:52:451
-0.524;1.859;9.3161;1.8771;0.3735;9.6199;0.1207;-0.0567;0.3592;-0.025;-0.0268;-0.0186;236.0;-24.79;-32.51;-35.04;149.78;-3.55;-11.14;5.0;30.135;39.468952;-0.340972;69.4;NaN;;15.076;;0 / 19;65;2021-10-20 21:02:52:472
-0.4091;1.835;9.416;1.8771;0.3735;9.6199;-0.048;-0.0381;0.1705;-0.025;-0.0268;-0.0186;236.0;-24.96;-32.04;-35.4;149.78;-3.55;-11.14;5.0;30.135;39.468952;-0.340972;69.4;NaN;;15.076;;0 / 19;84;2021-10-20 21:02:52:491
-0.5861;1.728;10.326;1.6664;0.5267;9.6486;-0.048;-0.0381;0.1705;-0.0187;-0.022;-0.0109;236.0;-24.96;-32.04;-35.4;149.78;-3.55;-11.14;5.0;30.135;39.468952;-0.340972;69.4;NaN;;15.076;;0 / 19;105;2021-10-20 21:02:52:512
-0.5861;1.728;10.326;1.2785;0.1963;9.7205;0.0909;0.0271;-0.3873;-0.0151;-0.0025;0.0033;236.0;-24.96;-31.99;-35.7;148.17;-3.08;-9.8;5.0;30.135;39.468952;-0.340972;69.4;NaN;;15.076;;0 / 19;125;2021-10-20 21:02:52:532
0.0071;1.407;10.73;1.2785;0.1963;9.7205;-0.4936;0.3609;-1.067;-0.0151;-0.0025;0.0033;236.0;-24.96;-31.99;-35.7;148.17;-3.08;-9.8;5.0;30.135;39.468952;-0.340972;69.4;NaN;;15.076;;0 / 19;145;2021-10-20 21:02:52:552
-0.138;1.7591;10.22;1.5467;-0.1149;9.6822;-0.4936;0.3609;-1.067;-0.0216;-0.0161;-0.0025;236.0;-25.26;-31.69;-35.4;148.17;-3.08;-9.8;5.0;30.135;39.468952;-0.340972;69.4;NaN;;15.076;;0 / 19;164;2021-10-20 21:02:52:571
-0.138;1.7591;10.22;2.1787;0.6225;9.5433;-0.5723;0.0707;-0.8346;-0.0216;-0.0161;-0.0025;236.0;-25.26;-31.69;-35.4;148.17;-3.08;-9.8;5.0;30.135;39.468952;-0.340972;69.4;NaN;;15.076;;0 / 19;185;2021-10-20 21:02:52:592
-0.607;2.13;8.7431;2.1787;0.6225;9.5433;-0.5723;0.0707;-0.8346;-0.0208;-0.0213;0.0063;236.0;-25.61;-31.26;-35.81;148.55;-3.64;-12.86;5.0;30.135;39.468952;-0.340972;69.4;NaN;;15.076;;0 / 19;205;2021-10-20 21:02:52:612
0.023;2.348;7.7531;2.8108;0.0144;9.3948;0.1041;-0.495;1.183;-0.0069;-0.0114;0.0594;236.0;-25.61;-31.26;-35.81;148.55;-3.64;-12.86;5.0;30.135;39.468952;-0.340972;69.4;NaN;;15.076;;0 / 19;224;2021-10-20 21:02:52:631
-0.122;2.0771;7.6541;2.5474;0.1532;9.4715;-0.4176;-0.4518;2.0683;-0.0069;-0.0114;0.0594;236.0;-25.8;-31.44;-35.64;148.55;-3.64;-12.86;5.0;29.079;39.468952;-0.340972;69.4;NaN;;15.076;;0 / 19;244;2021-10-20 21:02:52:651
-0.122;2.0771;7.6541;2.5474;0.1532;9.4715;-0.4176;-0.4518;2.0683;0.0792;-0.0697;0.1189;236.0;-25.8;-31.44;-35.64;148.55;-3.64;-12.86;5.0;29.079;39.468952;-0.340972;69.4;NaN;;15.076;;0 / 19;265;2021-10-20 21:02:52:672
0.737;1.862;9.047;1.9201;-0.8332;9.5816;-0.4954;-0.1904;1.5894;0.0792;-0.0697;0.1189;236.0;-26.21;-31.74;-35.64;152.46;4.87;-11.33;5.0;29.079;39.468952;-0.340972;69.4;NaN;;15.076;;0 / 19;284;2021-10-20 21:02:52:691
1.244;1.496;10.311;1.3312;-1.1684;9.6438;-1.403;0.2451;-0.2429;0.1337;-0.1544;0.1255;236.0;-26.21;-31.74;-35.64;152.46;4.87;-11.33;5.0;29.079;39.468952;-0.340972;69.4;NaN;;15.076;;0 / 19;305;2021-10-20 21:02:52:712
1.244;1.496;10.311;1.3312;-1.1684;9.6438;-1.403;0.2451;-0.2429;0.1275;-0.2325;0.0919;236.0;-26.4;-31.69;-36.11;152.46;4.87;-11.33;5.0;29.079;39.468952;-0.340972;69.4;NaN;;15.076;;0 / 19;325;2021-10-20 21:02:52:732
0.959;1.412;10.491;1.3264;-0.5985;9.6965;-1.6138;0.4337;-1.0769;0.1275;-0.2325;0.0919;236.0;-26.4;-31.69;-36.11;152.46;4.87;-11.33;5.0;29.079;39.468952;-0.340972;69.4;NaN;;15.076;;0 / 19;344;2021-10-20 21:02:52:751
0.308;1.419;11.058;1.2258;-0.3591;9.7252;-0.3861;0.4519;-1.475;0.1085;-0.2981;0.0441;236.0;-27.0;-31.61;-36.54;147.71;3.5;-7.79;5.0;29.079;39.468952;-0.340972;69.4;NaN;;15.076;;0 / 19;365;2021-10-20 21:02:52:772
0.308;1.419;11.058;1.2258;-0.3591;9.7252;-0.3861;0.4519;-1.475;-0.1264;-0.4707;-0.221;347.0;-27.0;-31.61;-36.54;147.71;3.5;-7.79;5.0;29.079;39.468952;-0.340972;69.4;NaN;;15.076;;0 / 19;385;2021-10-20 21:02:52:792
1.761;1.455;10.5791;1.2498;-1.8292;9.5529;-1.2981;0.4407;-1.2104;-0.1264;-0.4707;-0.221;347.0;-27.49;-30.96;-37.2;147.71;3.5;-7.79;5.0;29.079;39.468952;-0.340972;69.4;NaN;;15.076;;0 / 19;405;2021-10-20 21:02:52:812
0.9191;1.541;9.6551;1.5802;-0.5746;9.663;-0.6771;0.2409;0.166;-0.1264;-0.4707;-0.221;347.0;-27.49;-30.96;-37.2;147.71;3.5;-7.79;5.0;29.079;39.468952;-0.340972;69.4;NaN;;15.076;;0 / 19;425;2021-10-20 21:02:52:832
0.4541;1.5941;8.3441;1.5802;-0.5746;9.663;-0.6771;0.2409;0.166;-0.1264;-0.4707;-0.221;347.0;-28.01;-30.11;-37.74;146.44;3.36;-9.29;5.0;29.079;39.468952;-0.340972;69.4;NaN;;15.076;;0 / 19;445;2021-10-20 21:02:52:852
0.4541;1.5941;8.3441;1.9872;-0.9577;9.5577;-0.7681;-0.0974;1.1284;-0.1264;-0.4707;-0.221;347.0;-28.01;-30.11;-37.74;146.44;3.36;-9.29;5.0;29.079;39.468952;-0.340972;69.4;NaN;;15.076;;0 / 19;465;2021-10-20 21:02:52:872
0.935;2.0411;9.0551;2.0973;-0.1676;9.5816;-0.7681;-0.0974;1.1284;-0.1264;-0.4707;-0.221;347.0;-29.21;-30.24;-38.51;146.44;3.36;-9.29;5.0;29.079;39.468952;-0.340972;69.4;NaN;;15.076;;0 / 19;484;2021-10-20 21:02:52:891
-0.615;1.3931;11.039;2.0973;-0.1676;9.5816;0.1805;-0.8977;0.0139;-0.1264;-0.4707;-0.221;347.0;-29.21;-30.24;-38.51;146.44;3.36;-9.29;5.0;29.079;39.468952;-0.340972;69.4;NaN;;15.076;;0 / 19;504;2021-10-20 21:02:52:911
-0.615;1.3931;11.039;1.336;0.5315;9.7013;0.5554;-0.0062;-0.7332;-0.1264;-0.4707;-0.221;347.0;-30.49;-30.79;-39.24;139.57;-3.11;-7.84;5.0;29.079;39.468952;-0.340972;69.4;NaN;;15.076;;0 / 19;525;2021-10-20 21:02:52:932
0.33;1.4291;9.797;1.1253;-0.6225;9.7205;0.5554;-0.0062;-0.7332;-0.0403;-0.1316;0.1708;347.0;-30.49;-30.79;-39.24;139.57;-3.11;-7.84;5.0;29.079;39.468952;-0.340972;69.4;NaN;;15.076;;0 / 19;545;2021-10-20 21:02:52:952
0.6821;0.5;8.858;0.5124;-0.7087;9.7683;-0.1764;0.5021;-0.0929;-0.0403;-0.1316;0.1708;347.0;-32.29;-31.74;-39.84;139.57;-3.11;-7.84;5.0;31.898;39.468952;-0.340972;69.4;NaN;;15.076;;0 / 19;564;2021-10-20 21:02:52:971
0.6821;0.5;8.858;0.5124;-0.7087;9.7683;0.4516;1.2825;0.306;-0.0305;0.016;0.2863;347.0;-32.29;-31.74;-39.84;139.57;-3.11;-7.84;5.0;31.898;39.468952;-0.340972;69.4;NaN;;15.076;;0 / 19;585;2021-10-20 21:02:52:992
-0.2509;0.026;9.1361;-0.0862;0.3208;9.8019;0.4516;1.2825;0.306;-0.0305;0.016;0.2863;347.0;-34.39;-33.11;-40.09;132.69;-1.87;0.5;5.0;31.898;39.468952;-0.340972;69.4;NaN;;15.076;;0 / 19;604;2021-10-20 21:02:53:011
-0.6409;-0.5209;10.508;-0.4453;0.68;9.7731;0.8316;1.8224;0.3506;-0.0799;0.1365;0.355;347.0;-34.39;-33.11;-40.09;132.69;-1.87;0.5;5.0;31.898;39.468952;-0.340972;69.4;NaN;;15.076;;0 / 19;625;2021-10-20 21:02:53:032
-0.418;-0.5689;9.744;-0.4453;0.68;9.7731;0.9814;1.9561;0.0417;-0.5369;0.2861;0.1756;347.0;-35.81;-34.31;-39.54;132.69;-1.87;0.5;5.0;31.898;39.468952;-0.340972;69.4;NaN;;15.076;;0 / 19;645;2021-10-20 21:02:53:052
-0.418;-0.5689;9.744;-0.4214;0.2298;9.7971;0.9814;1.9561;0.0417;-0.5369;0.2861;0.1756;347.0;-35.81;-34.31;-39.54;132.69;-1.87;0.5;5.0;31.898;39.468952;-0.340972;69.4;NaN;;15.076;;0 / 19;664;2021-10-20 21:02:53:071
-0.3971;0.299;9.294;0.3208;0.5986;9.7827;0.4478;1.5413;-0.0924;-0.5369;0.2861;0.1756;347.0;-37.09;-36.06;-38.64;133.16;-3.5;-1.88;5.0;31.898;39.468952;-0.340972;69.4;NaN;;15.076;;0 / 19;685;2021-10-20 21:02:53:092
-0.3229;1.136;10.8671;0.3208;0.5986;9.7827;0.4762;0.2149;-0.4185;-0.5369;0.2861;0.1756;347.0;-37.09;-36.06;-38.64;133.16;-3.5;-1.88;5.0;31.898;39.468952;-0.340972;69.4;NaN;;15.076;;0 / 19;705;2021-10-20 21:02:53:112
-0.3229;1.136;10.8671;0.996;0.3304;9.7492;0.4762;0.2149;-0.4185;-0.5375;0.2162;0.0693;357.0;-38.29;-37.56;-37.44;133.16;-3.5;-1.88;5.0;31.898;39.468952;-0.340972;69.4;NaN;;15.076;;0 / 19;725;2021-10-20 21:02:53:132
-1.1959;0.548;11.891;0.2634;0.972;9.754;0.9894;0.037;-1.7147;-0.4481;0.3526;0.078;357.0;-38.29;-37.56;-37.44;133.16;-3.5;-1.88;5.0;31.898;39.468952;-0.340972;69.4;NaN;;15.076;;0 / 19;745;2021-10-20 21:02:53:152
-0.868;0.248;11.096;0.2634;0.972;9.754;1.0023;0.5837;-1.3847;-0.4481;0.3526;0.078;357.0;-39.41;-38.64;-36.54;132.69;-5.69;-1.55;5.0;31.898;39.468952;-0.340972;69.4;NaN;;15.076;;0 / 19;765;2021-10-20 21:02:53:172
-0.868;0.248;11.096;0.4405;0.6895;9.7731;1.0023;0.5837;-1.3847;-0.3796;0.3653;0.0815;357.0;-39.41;-38.64;-36.54;132.69;-5.69;-1.55;5.0;31.898;39.468952;-0.340972;69.4;NaN;;15.076;;0 / 19;785;2021-10-20 21:02:53:192
-0.179;1.0691;9.1121;1.0774;-0.0335;9.7492;0.5985;0.0844;-0.1672;-0.3796;0.3653;0.0815;357.0;-40.31;-39.11;-35.94;132.69;-5.69;-1.55;5.0;31.898;39.468952;-0.340972;69.4;NaN;;15.076;;0 / 19;805;2021-10-20 21:02:53:212
-0.179;1.0691;9.1121;1.0774;-0.0335;9.7492;0.5985;0.0844;-0.1672;-0.3796;0.3653;0.0815;357.0;-40.31;-39.11;-35.94;132.69;-5.69;-1.55;5.0;31.898;39.468952;-0.340972;69.4;NaN;;15.076;;0 / 19;824;2021-10-20 21:02:53:231
0.179;0.993;7.638;1.2306;-0.1867;9.73;-0.0431;-0.3249;1.0625;-0.2826;0.2899;0.0452;357.0;-40.61;-38.76;-35.51;137.72;1.09;-7.21;5.0;31.898;39.468952;-0.340972;69.4;NaN;;15.076;;0 / 19;844;2021-10-20 21:02:53:251
0.179;0.993;7.638;1.2306;-0.1867;9.73;-0.0431;-0.3249;1.0625;-0.2826;0.2899;0.0452;357.0;-40.61;-38.76;-35.51;137.72;1.09;-7.21;5.0;31.898;39.468952;-0.340972;69.4;NaN;;15.076;;0 / 19;865;2021-10-20 21:02:53:272
0.1931;1.2251;10.1291;1.0726;-0.0862;9.7492;-0.7843;-0.5886;0.6665;0.0254;0.1455;0.1332;357.0;-40.5;-38.16;-36.11;137.72;1.09;-7.21;5.0;33.657;39.468952;-0.340972;69.4;NaN;;15.076;;0 / 19;885;2021-10-20 21:02:53:292
0.1841;1.3421;11.0081;1.221;-0.8523;9.6917;-0.1798;-0.5894;-1.2428;0.0895;0.0128;0.1209;357.0;-40.5;-38.16;-36.11;137.72;1.09;-7.21;5.0;33.657;39.468952;-0.340972;69.4;NaN;;15.076;;0 / 19;905;2021-10-20 21:02:53:312
1.9811;1.206;10.0031;1.221;-0.8523;9.6917;-0.1798;-0.5894;-1.2428;0.0895;0.0128;0.1209;357.0;-39.66;-37.99;-36.54;139.79;4.99;-7.18;5.0;33.657;39.468952;-0.340972;69.4;NaN;;15.076;;0 / 19;924;2021-10-20 21:02:53:331
1.9811;1.206;10.0031;1.3599;-1.47;9.6007;-1.9691;-0.4424;-0.5502;0.1932;-0.2474;0.0766;357.0;-39.66;-37.99;-36.54;139.79;4.99;-7.18;5.0;33.657;39.468952;-0.340972;69.4;NaN;;15.076;;0 / 19;945;2021-10-20 21:02:53:352
0.335;1.704;9.198;1.8818;0.6033;9.6055;-0.1254;-0.8872;0.4517;0.2179;-0.3426;0.041;357.0;-39.11;-38.16;-37.31;139.79;4.99;-7.18;5.0;33.657;39.468952;-0.340972;69.4;NaN;;15.076;;0 / 19;965;2021-10-20 21:02:53:372
-1.1051;1.697;10.0931;1.8818;0.6033;9.6055;-0.1254;-0.8872;0.4517;0.2179;-0.3426;0.041;357.0;-39.11;-38.16;-37.31;139.79;4.99;-7.18;5.0;33.657;39.468952;-0.340972;69.4;NaN;;15.076;;0 / 19;984;2021-10-20 21:02:53:391
0.3851;1.493;10.587;1.3743;0.6321;9.6917;1.1408;-0.8447;-0.2878;0.2184;-0.2717;0.0597;357.0;-38.59;-38.04;-38.04;136.56;-3.69;-8.07;5.0;33.657;39.468952;-0.340972;69.4;NaN;;15.076;;0 / 19;1005;2021-10-20 21:02:53:412
0.3851;1.493;10.587;1.5371;-0.5985;9.6678;-0.4963;-0.5399;-0.0923;0.2318;-0.1339;0.1144;357.0;-38.59;-38.04;-38.04;136.56;-3.69;-8.07;5.0;33.657;39.468952;-0.340972;69.4;NaN;;15.076;;0 / 19;1024;2021-10-20 21:02:53:431
0.54;1.56;9.2921;1.5371;-0.5985;9.6678;-0.4963;-0.5399;-0.0923;0.2318;-0.1339;0.1144;361.0;-38.21;-38.21;-38.4;136.56;-3.69;-8.07;5.0;33.657;39.468952;-0.340972;69.4;NaN;;15.076;;0 / 19;1044;2021-10-20 21:02:53:451
0.201;1.8551;8.7311;1.9297;-0.3543;9.6103;-0.4059;-0.4867;0.5707;0.2036;-0.1013;0.1044;361.0;-38.21;-38.21;-38.4;136.56;-3.69;-8.07;5.0;33.657;39.468952;-0.340972;69.4;NaN;;15.076;;0 / 19;1065;2021-10-20 21:02:53:472
0.201;1.8551;8.7311;2.2122;0.4788;9.5433;0.4228;-0.7589;1.6085;0.2036;-0.1013;0.1044;361.0;-37.69;-38.16;-38.7;143.26;2.07;-11.35;5.0;33.657;39.468952;-0.340972;69.4;NaN;;15.076;;0 / 19;1084;2021-10-20 21:02:53:491
-0.3919;1.883;8.109;2.2122;0.4788;9.5433;0.4228;-0.7589;1.6085;0.2036;-0.1013;0.1044;361.0;-37.69;-38.16;-38.7;143.26;2.07;-11.35;5.0;33.657;39.468952;-0.340972;69.4;NaN;;15.076;;0 / 19;1105;2021-10-20 21:02:53:512
-0.624;1.728;8.492;1.9968;0.6416;9.5816;0.6197;-0.6579;1.193;0.2036;-0.1013;0.1044;361.0;-37.01;-38.04;-38.59;143.26;2.07;-11.35;5.0;33.657;39.468952;-0.340972;69.4;NaN;;15.076;;0 / 19;1125;2021-10-20 21:02:53:532
-0.603;1.5191;8.8031;1.6903;0.7087;9.6343;0.7956;-0.2669;1.1255;0.2036;-0.1013;0.1044;361.0;-37.01;-38.04;-38.59;143.26;2.07;-11.35;5.0;33.657;39.468952;-0.340972;69.4;NaN;;15.076;;0 / 19;1144;2021-10-20 21:02:53:551
-0.603;1.5191;8.8031;1.6903;0.7087;9.6343;0.7956;-0.2669;1.1255;0.2617;0.1259;0.155;361.0;-36.9;-38.59;-38.81;140.21;-4.14;-9.95;5.0;33.657;39.468952;-0.340972;69.4;NaN;;15.076;;0 / 19;1165;2021-10-20 21:02:53:572
0.026;1.3211;9.675;1.3599;0.0144;9.7109;0.232;-0.0956;0.4515;0.2617;0.1259;0.155;361.0;-36.9;-38.59;-38.81;140.21;-4.14;-9.95;5.0;33.657;39.468952;-0.340972;69.4;NaN;;15.076;;0 / 19;1184;2021-10-20 21:02:53:591
0.059;0.8801;10.505;0.8284;-0.0144;9.7731;0.0027;0.5492;-0.732;0.2386;0.1122;0.1183;361.0;-36.41;-38.34;-39.49;140.21;-4.14;-9.95;5.0;32.255;39.468952;-0.340972;69.4;NaN;;15.076;;0 / 19;1205;2021-10-20 21:02:53:612
0.059;0.8801;10.505;0.8284;-0.0144;9.7731;0.0027;0.5492;-0.732;0.2386;0.1122;0.1183;361.0;-36.41;-38.34;-39.49;140.21;-4.14;-9.95;5.0;32.255;39.468952;-0.340972;69.4;NaN;;15.076;;0 / 19;1225;2021-10-20 21:02:53:632
0.225;0.461;10.7711;0.3879;-0.2107;9.7971;-0.1551;0.8767;-1.1448;0.2386;0.1122;0.1183;361.0;-36.66;-38.29;-41.04;137.74;1.23;-2.27;5.0;32.255;39.468952;-0.340972;69.4;NaN;;15.076;;0 / 19;1244;2021-10-20 21:02:53:651
0.356;0.411;10.6151;0.3879;-0.3017;9.7971;-0.3586;0.981;-0.9727;-0.0847;0.0832;-0.1079;361.0;-36.66;-38.29;-41.04;137.74;1.23;-2.27;5.0;32.255;39.468952;-0.340972;69.4;NaN;;15.076;;0 / 19;1265;2021-10-20 21:02:53:672
0.0311;0.2441;10.419;0.2059;-0.0527;9.8067;-0.3586;0.981;-0.9727;-0.0847;0.0832;-0.1079;361.0;-36.79;-38.21;-43.14;137.74;1.23;-2.27;5.0;32.255;39.468952;-0.340972;69.4;NaN;;15.076;;0 / 19;1285;2021-10-20 21:02:53:692
0.0311;0.2441;10.419;0.2059;-0.0527;9.8067;-0.0333;1.0523;-0.802;-0.2633;-0.0272;-0.2497;361.0;-36.79;-38.21;-43.14;137.74;1.23;-2.27;5.0;32.255;39.468952;-0.340972;69.4;NaN;;15.076;;0 / 19;1305;2021-10-20 21:02:53:712
0.167;0.32;10.302;0.3783;-0.1053;9.7971;-0.1261;1.0783;-0.5219;-0.2864;-0.0491;-0.2641;361.0;-36.71;-38.21;-45.19;137.53;0.62;-2.21;5.0;32.255;39.468952;-0.340972;69.4;NaN;;15.076;;0 / 19;1325;2021-10-20 21:02:53:732
0.167;0.32;10.302;0.3783;-0.1053;9.7971;-0.1261;1.0783;-0.5219;-0.2864;-0.0491;-0.2641;361.0;-36.71;-38.21;-45.19;137.53;0.62;-2.21;5.0;32.255;39.468952;-0.340972;69.4;NaN;;15.076;;0 / 19;1345;2021-10-20 21:02:53:752
0.167;0.32;10.302;0.3783;-0.1053;9.7971;-0.1261;1.0783;-0.5219;-0.2864;-0.0491;-0.2641;361.0;-36.71;-38.21;-45.19;137.53;0.62;-2.21;5.0;32.255;39.468952;-0.340972;69.4;NaN;;15.076;;0 / 19;1364;2021-10-20 21:02:53:771
-0.0281;0.39;10.469;0.407;0.0239;9.7971;0.0084;0.8096;-0.6822;-0.3569;-0.0696;-0.2984;397.0;-36.79;-38.29;-45.79;137.53;0.62;-2.21;5.0;32.255;39.468952;-0.340972;69.4;NaN;;15.076;;0 / 19;1385;2021-10-20 21:02:53:792
-0.442;0.9551;9.639;0.9577;0.4262;9.7492;0.4195;0.0175;0.0608;-0.2916;-0.0477;-0.2291;397.0;-36.79;-38.29;-45.79;137.53;0.62;-2.21;5.0;32.255;39.468952;-0.340972;69.4;NaN;;15.076;;0 / 19;1405;2021-10-20 21:02:53:812
-0.301;1.17;9.284;1.2498;0.2729;9.7252;0.4195;0.0175;0.0608;-0.2916;-0.0477;-0.2291;397.0;-36.79;-38.94;-46.61;138.77;-2.49;-5.61;5.0;32.255;39.468952;-0.340972;69.4;NaN;;15.076;;0 / 19;1425;2021-10-20 21:02:53:832
-0.301;1.17;9.284;1.2498;0.2729;9.7252;0.3412;-0.207;0.4331;-0.1754;0.0128;-0.1189;397.0;-36.79;-38.94;-46.61;138.77;-2.49;-5.61;5.0;32.255;39.468952;-0.340972;69.4;NaN;;15.076;;0 / 19;1444;2021-10-20 21:02:53:851
-0.021;1.055;9.227;1.1301;0.0;9.7396;-0.0131;-0.1942;0.6016;-0.1754;0.0128;-0.1189;397.0;-36.6;-38.89;-46.2;138.77;-2.49;-5.61;5.0;32.255;39.468952;-0.340972;69.4;NaN;;15.076;;0 / 19;1465;2021-10-20 21:02:53:872
0.0641;1.091;9.2531;1.154;-0.0144;9.7396;-0.0131;-0.1942;0.6016;-0.1085;0.0417;-0.061;397.0;-36.6;-38.89;-46.2;138.77;-2.49;-5.61;5.0;32.255;39.468952;-0.340972;69.4;NaN;;15.076;;0 / 19;1486;2021-10-20 21:02:53:893
0.0641;1.091;9.2531;1.154;-0.0144;9.7396;-0.0512;-0.2198;0.5482;-0.0095;0.0612;0.005;397.0;-36.6;-38.81;-45.79;141.28;0.08;-6.76;5.0;32.255;39.468952;-0.340972;69.4;NaN;;15.076;;0 / 19;1505;2021-10-20 21:02:53:912
-0.153;1.0241;9.182;1.063;0.2442;9.7444;0.1835;-0.1477;0.5478;-0.0095;0.0612;0.005;397.0;-36.6;-38.81;-45.79;141.28;0.08;-6.76;5.0;33.133;39.468952;-0.340972;69.4;NaN;;15.076;;0 / 19;1524;2021-10-20 21:02:53:931
-0.203;1.019;9.593;1.0056;0.1484;9.754;0.1311;-0.1217;0.1107;0.03;0.0655;0.0279;397.0;-36.36;-38.89;-45.54;141.28;0.08;-6.76;5.0;33.133;39.468952;-0.340972;69.4;NaN;;15.076;;0 / 19;1545;2021-10-20 21:02:53:952
-0.2771;0.978;10.172;1.0056;0.1484;9.754;0.1311;-0.1217;0.1107;0.03;0.0655;0.0279;397.0;-36.36;-38.89;-45.54;141.28;0.08;-6.76;5.0;33.133;39.468952;-0.340972;69.4;NaN;;15.076;;0 / 19;1565;2021-10-20 21:02:53:972
-0.2771;0.978;10.172;0.8571;0.2729;9.7636;0.2076;0.0051;-0.4643;0.0821;0.0567;0.056;397.0;-36.3;-38.76;-45.3;139.7;-1.6;-5.02;5.0;33.133;39.468952;-0.340972;69.4;NaN;;15.076;;0 / 19;1585;2021-10-20 21:02:53:992
-0.196;0.9161;10.1801;0.8045;0.1197;9.7731;0.2076;0.0051;-0.4643;0.0657;0.0437;0.0406;397.0;-36.3;-38.76;-45.3;139.7;-1.6;-5.02;5.0;33.133;39.468952;-0.340972;69.4;NaN;;15.076;;0 / 19;1604;2021-10-20 21:02:54:011
-0.052;0.842;10.065;0.8045;0.1197;9.7731;0.1044;0.0589;-0.3839;0.0657;0.0437;0.0406;397.0;-36.96;-38.81;-45.3;139.7;-1.6;-5.02;5.0;33.133;39.468952;-0.340972;69.4;NaN;;15.076;;0 / 19;1625;2021-10-20 21:02:54:032
-0.2321;0.8561;9.936;0.8428;0.2155;9.7683;0.0641;0.0765;-0.2222;0.0375;0.0334;0.0176;397.0;-36.96;-38.81;-45.3;139.7;-1.6;-5.02;5.0;33.133;39.468952;-0.340972;69.4;NaN;;15.076;;0 / 19;1644;2021-10-20 21:02:54:051
-0.2321;0.8561;9.936;0.8428;0.2155;9.7683;0.0641;0.0765;-0.2222;0.0375;0.0334;0.0176;397.0;-37.2;-39.11;-45.54;139.04;-1.26;-4.93;5.0;33.133;39.468952;-0.340972;69.4;NaN;;15.076;;0 / 19;1664;2021-10-20 21:02:54:071
-0.179;0.909;9.861;0.9002;0.1484;9.7636;0.0853;0.1077;-0.1954;0.0204;0.0314;0.0063;397.0;-37.2;-39.11;-45.54;139.04;-1.26;-4.93;5.0;33.133;39.468952;-0.340972;69.4;NaN;;15.076;;0 / 19;1685;2021-10-20 21:02:54:092
-0.225;0.9311;9.708;0.9146;0.2203;9.7636;0.1073;-1.0E-4;-0.0458;0.0204;0.0314;0.0063;397.0;-37.56;-39.19;-45.49;139.04;-1.26;-4.93;5.0;33.133;39.468952;-0.340972;69.4;NaN;;15.076;;0 / 19;1704;2021-10-20 21:02:54:111
-0.225;0.9311;9.708;0.9146;0.2203;9.7636;0.1073;-1.0E-4;-0.0458;0.0204;0.0314;0.0063;405.0;-37.56;-39.19;-45.49;139.04;-1.26;-4.93;5.0;33.133;39.468952;-0.340972;69.4;NaN;;15.076;;0 / 19;1725;2021-10-20 21:02:54:132
-0.021;0.995;9.617;0.996;0.0431;9.7588;-0.1193;-0.0423;0.0905;-7.0E-4;0.0228;-0.0077;405.0;-37.86;-39.54;-45.49;140.13;-0.25;-5.83;5.0;33.133;39.468952;-0.340972;69.4;NaN;;15.076;;0 / 19;1744;2021-10-20 21:02:54:151
-0.1691;0.9881;9.7541;0.9816;0.1484;9.7588;-5.0E-4;-0.0575;0.2676;-0.0078;0.0188;0.0125;405.0;-37.86;-39.54;-45.49;140.13;-0.25;-5.83;5.0;33.133;39.468952;-0.340972;69.4;NaN;;15.076;;0 / 19;1764;2021-10-20 21:02:54:171
-0.0401;0.962;9.6911;0.9481;0.0527;9.7588;-5.0E-4;-0.0575;0.2676;-0.0078;0.0188;0.0125;405.0;-37.5;-39.54;-45.11;140.13;-0.25;-5.83;5.0;33.133;39.468952;-0.340972;69.4;NaN;;15.076;;0 / 19;1785;2021-10-20 21:02:54:192
-0.0401;0.962;9.6911;0.9481;0.0527;9.7588;-0.0751;-0.0058;0.0635;-0.0078;0.0188;0.0125;405.0;-37.5;-39.54;-45.11;140.13;-0.25;-5.83;5.0;33.133;39.468952;-0.340972;69.4;NaN;;15.076;;0 / 19;1805;2021-10-20 21:02:54:212
-0.1;0.9521;9.7181;0.9433;0.0814;9.7636;-0.08;-0.0474;0.0771;3.0E-4;0.0127;0.015;405.0;-37.8;-39.41;-44.7;139.05;-0.48;-5.52;5.0;32.829;39.468952;-0.340972;69.4;NaN;;15.076;;0 / 19;1825;2021-10-20 21:02:54:232
0.1961;1.041;9.77;1.0439;-0.2155;9.7492;-0.08;-0.0474;0.0771;3.0E-4;0.0127;0.015;405.0;-37.8;-39.41;-44.7;139.05;-0.48;-5.52;5.0;32.829;39.468952;-0.340972;69.4;NaN;;15.076;;0 / 19;1844;2021-10-20 21:02:54:251
-0.019;0.935;9.897;0.929;0.0;9.7636;-0.3531;-0.1144;-0.0183;0.0052;0.005;0.0128;405.0;-37.69;-39.06;-44.59;139.05;-0.48;-5.52;5.0;32.829;39.468952;-0.340972;69.4;NaN;;15.076;;0 / 19;1865;2021-10-20 21:02:54:272
-0.019;0.935;9.897;0.929;0.0;9.7636;-0.3531;-0.1144;-0.0183;0.0052;0.005;0.0128;405.0;-37.69;-39.06;-44.59;139.05;-0.48;-5.52;5.0;32.829;39.468952;-0.340972;69.4;NaN;;15.076;;0 / 19;1885;2021-10-20 21:02:54:292
0.0041;0.962;9.897;1.0151;-0.0287;9.754;-0.0745;-0.0439;-0.25;0.0052;0.005;0.0128;405.0;-37.69;-38.81;-44.4;139.66;0.17;-5.94;5.0;32.829;39.468952;-0.340972;69.4;NaN;;15.076;;0 / 19;1905;2021-10-20 21:02:54:312
0.0431;0.9641;9.9311;0.9529;-0.0287;9.7588;-0.1547;-0.069;-0.2092;0.0058;-0.0458;-0.014;405.0;-37.69;-38.81;-44.4;139.66;0.17;-5.94;5.0;32.829;39.468952;-0.340972;69.4;NaN;;15.076;;0 / 19;1925;2021-10-20 21:02:54:332
0.0431;0.9641;9.9311;0.9529;-0.0287;9.7588;-0.1547;-0.069;-0.2092;0.0058;-0.0458;-0.014;405.0;-38.1;-38.89;-43.99;139.66;0.17;-5.94;5.0;32.829;39.468952;-0.340972;69.4;NaN;;15.076;;0 / 19;1945;2021-10-20 21:02:54:352
0.131;1.079;9.6431;1.0918;-0.1676;9.7444;-0.1041;-0.0404;0.036;0.0073;-0.0518;-0.0164;405.0;-38.1;-38.89;-43.99;139.66;0.17;-5.94;5.0;32.829;39.468952;-0.340972;69.4;NaN;;15.076;;0 / 19;1965;2021-10-20 21:02:54:372
-0.09;0.873;9.536;0.8475;0.2107;9.7683;0.0149;0.1133;0.2401;0.0073;-0.0518;-0.0164;405.0;-37.99;-39.11;-44.04;140.46;0.98;-6.39;5.0;32.829;39.468952;-0.340972;69.4;NaN;;15.076;;0 / 19;1984;2021-10-20 21:02:54:391
-0.09;0.873;9.536;0.8475;0.2107;9.7683;0.0149;0.1133;0.2401;0.0073;-0.0518;-0.0164;405.0;-37.99;-39.11;-44.04;140.46;0.98;-6.39;5.0;32.829;39.468952;-0.340972;69.4;NaN;;15.076;;0 / 19;2009;2021-10-20 21:02:54:416
-0.09;0.873;9.536;0.8475;0.2107;9.7683;0.0149;0.1133;0.2401;0.0073;-0.0518;-0.0164;405.0;-37.99;-39.11;-44.04;140.46;0.98;-6.39;5.0;32.829;39.468952;-0.340972;69.4;NaN;;15.076;;0 / 19;2024;2021-10-20 21:02:54:431
-0.09;0.873;9.536;0.8475;0.2107;9.7683;0.0149;0.1133;0.2401;0.0073;-0.0518;-0.0164;405.0;-37.99;-39.11;-44.04;140.46;0.98;-6.39;5.0;32.829;39.468952;-0.340972;69.4;NaN;;15.076;;0 / 19;2044;2021-10-20 21:02:54:451
-0.4729;0.734;9.6551;0.6895;0.5794;9.7636;0.0149;0.1133;0.2401;0.0099;-0.0621;-0.0151;401.0;-38.16;-39.24;-44.04;136.11;-3.39;-4.04;5.0;32.829;39.468952;-0.340972;69.4;NaN;;15.076;;0 / 19;2064;2021-10-20 21:02:54:471
-0.313;0.888;9.995;0.8475;0.3448;9.7636;0.232;0.0416;-0.2102;0.0131;0.0062;0.0367;401.0;-38.16;-39.24;-44.04;136.11;-3.39;-4.04;5.0;32.829;39.468952;-0.340972;69.4;NaN;;15.076;;0 / 19;2085;2021-10-20 21:02:54:492
-0.313;0.888;9.995;0.8475;0.3448;9.7636;0.232;0.0416;-0.2102;0.0131;0.0062;0.0367;401.0;-37.99;-39.66;-44.34;136.11;-3.39;-4.04;5.0;32.829;39.468952;-0.340972;69.4;NaN;;15.076;;0 / 19;2105;2021-10-20 21:02:54:512
0.023;0.885;10.125;0.8284;-0.067;9.7731;0.0776;0.0985;-0.3739;0.012;0.0283;0.048;401.0;-37.99;-39.66;-44.34;136.11;-3.39;-4.04;5.0;32.829;39.468952;-0.340972;69.4;NaN;;15.076;;0 / 19;2124;2021-10-20 21:02:54:531
0.023;0.885;9.806;0.8859;-0.0144;9.7683;0.0776;0.0985;-0.3739;0.012;0.0283;0.048;401.0;-37.86;-39.54;-44.34;139.74;0.39;-4.84;5.0;32.829;39.468952;-0.340972;69.4;NaN;;15.076;;0 / 19;2144;2021-10-20 21:02:54:551
0.023;0.885;9.806;0.8859;-0.0144;9.7683;-0.1183;0.0885;-0.0884;0.008;0.0557;0.0421;401.0;-37.86;-39.54;-44.34;139.74;0.39;-4.84;5.0;33.152;39.468952;-0.340972;69.4;NaN;;15.076;;0 / 19;2166;2021-10-20 21:02:54:573
-0.045;1.0001;9.7061;1.0774;0.0958;9.7492;-0.0566;0.0355;0.0885;0.0066;0.0245;0.0111;401.0;-37.69;-39.49;-44.21;139.74;0.39;-4.84;5.0;33.152;39.468952;-0.340972;69.4;NaN;;15.076;;0 / 19;2185;2021-10-20 21:02:54:592
-0.1669;1.127;9.497;1.0774;0.0958;9.7492;-0.0566;0.0355;0.0885;0.0066;0.0245;0.0111;401.0;-37.69;-39.49;-44.21;139.74;0.39;-4.84;5.0;33.152;39.468952;-0.340972;69.4;NaN;;15.076;;0 / 19;2205;2021-10-20 21:02:54:612
-0.1669;1.127;9.497;1.1205;0.2251;9.7396;0.0174;-0.1392;0.2652;0.0054;0.0168;0.0078;401.0;-37.61;-39.36;-44.29;139.18;-1.32;-6.56;5.0;33.152;39.468952;-0.340972;69.4;NaN;;15.076;;0 / 19;2224;2021-10-20 21:02:54:631
-0.2359;1.1291;9.5261;1.1396;0.2634;9.7396;0.1218;-0.1647;0.2377;0.0045;0.0106;0.0033;401.0;-37.61;-39.36;-44.29;139.18;-1.32;-6.56;5.0;33.152;39.468952;-0.340972;69.4;NaN;;15.076;;0 / 19;2244;2021-10-20 21:02:54:651
-0.196;1.0721;9.588;1.1396;0.2634;9.7396;0.1218;-0.1647;0.2377;0.0045;0.0106;0.0033;401.0;-37.5;-39.41;-43.91;139.18;-1.32;-6.56;5.0;33.152;39.468952;-0.340972;69.4;NaN;;15.076;;0 / 19;2264;2021-10-20 21:02:54:671
-0.196;1.0721;9.588;1.0487;0.0958;9.7492;0.0797;-0.1226;0.1423;0.0066;0.0063;-0.0026;401.0;-37.5;-39.41;-43.91;139.18;-1.32;-6.56;5.0;33.152;39.468952;-0.340972;69.4;NaN;;15.076;;0 / 19;2285;2021-10-20 21:02:54:692
-0.107;1.0001;9.696;0.9194;0.0431;9.7636;-0.0726;0.0596;0.0736;0.0066;0.0063;-0.0026;401.0;-37.39;-39.41;-43.69;140.22;-0.56;-6.14;5.0;33.152;39.468952;-0.340972;69.4;NaN;;15.076;;0 / 19;2305;2021-10-20 21:02:54:712
-0.2171;0.95;9.7781;0.972;0.2442;9.754;0.1161;0.0093;-0.063;0.0066;0.0063;-0.0026;401.0;-37.39;-39.41;-43.69;140.22;-0.56;-6.14;5.0;33.152;39.468952;-0.340972;69.4;NaN;;15.076;;0 / 19;2324;2021-10-20 21:02:54:731
-0.225;1.002;9.95;0.972;0.2442;9.754;0.1161;0.0093;-0.063;0.0066;0.0063;-0.0026;401.0;-37.61;-39.36;-43.8;140.22;-0.56;-6.14;5.0;33.152;39.468952;-0.340972;69.4;NaN;;15.076;;0 / 19;2344;2021-10-20 21:02:54:751
-0.225;1.002;9.95;0.972;0.2538;9.754;0.1002;-0.0266;-0.1861;0.0066;0.0063;-0.0026;401.0;-37.61;-39.36;-43.8;140.22;-0.56;-6.14;5.0;33.152;39.468952;-0.340972;69.4;NaN;;15.076;;0 / 19;2364;2021-10-20 21:02:54:771
-0.1691;1.007;9.938;0.972;0.2538;9.754;0.1002;-0.0266;-0.1861;0.0239;0.0106;0.0018;399.0;-37.61;-39.19;-44.1;138.46;-1.48;-5.69;5.0;33.152;39.468952;-0.340972;69.4;NaN;;15.076;;0 / 19;2385;2021-10-20 21:02:54:792
-0.1481;0.923;9.7181;0.9577;0.1101;9.7588;-0.013;-0.0046;-0.1462;0.0133;0.012;-0.0016;399.0;-37.61;-39.19;-44.1;138.46;-1.48;-5.69;5.0;33.152;39.468952;-0.340972;69.4;NaN;;15.076;;0 / 19;2404;2021-10-20 21:02:54:811
-0.1481;0.923;9.7181;0.9242;0.1101;9.7636;-0.0017;0.0388;-0.0375;0.0133;0.012;-0.0016;399.0;-37.86;-39.54;-44.64;138.46;-1.48;-5.69;5.0;33.152;39.468952;-0.340972;69.4;NaN;;15.076;;0 / 19;2424;2021-10-20 21:02:54:831
-0.1;0.9521;9.608;0.9242;0.1101;9.7636;-0.0017;0.0388;-0.0375;0.0092;0.0111;-0.0023;399.0;-37.86;-39.54;-44.64;138.46;-1.48;-5.69;5.0;33.152;39.468952;-0.340972;69.4;NaN;;15.076;;0 / 19;2445;2021-10-20 21:02:54:852
-0.0761;0.921;9.545;0.9194;0.1101;9.7636;-0.0196;0.083;0.1937;0.0033;0.0105;-0.0019;399.0;-37.39;-39.41;-44.94;139.7;-0.64;-5.38;5.0;33.152;39.468952;-0.340972;69.4;NaN;;15.076;;0 / 19;2465;2021-10-20 21:02:54:872
-0.0761;0.921;9.545;0.9912;0.2059;9.754;-0.0196;0.083;0.1937;0.0033;0.0105;-0.0019;399.0;-37.39;-39.41;-44.94;139.7;-0.64;-5.38;5.0;32.249;39.468952;-0.340972;69.4;NaN;;15.076;;0 / 19;2485;2021-10-20 21:02:54:892
-0.21;0.969;9.687;0.9912;0.2059;9.754;0.058;0.015;0.18;-0.011;0.0087;-0.0102;399.0;-37.26;-39.49;-45.19;139.7;-0.64;-5.38;5.0;32.249;39.468952;-0.340972;69.4;NaN;;15.076;;0 / 19;2504;2021-10-20 21:02:54:911
-0.2681;0.873;9.8681;0.8523;0.2586;9.7683;0.1242;0.1218;0.0167;-0.011;0.0087;-0.0102;399.0;-37.26;-39.49;-45.19;139.7;-0.64;-5.38;5.0;32.249;39.468952;-0.340972;69.4;NaN;;15.076;;0 / 19;2524;2021-10-20 21:02:54:931
-0.4039;0.909;9.9641;0.9002;0.3352;9.7588;0.202;0.0716;-0.1594;-0.0206;0.0077;-0.0151;399.0;-37.26;-39.54;-45.19;139.52;-1.96;-5.27;5.0;32.249;39.468952;-0.340972;69.4;NaN;;15.076;;0 / 19;2545;2021-10-20 21:02:54:952
-0.4039;0.909;9.9641;0.8523;0.2777;9.7636;0.202;0.0716;-0.1594;-0.0206;0.0077;-0.0151;399.0;-37.26;-39.54;-45.19;139.52;-1.96;-5.27;5.0;32.249;39.468952;-0.340972;69.4;NaN;;15.076;;0 / 19;2565;2021-10-20 21:02:54:972
-0.287;0.897;9.986;0.8523;0.2777;9.7636;0.199;0.0521;-0.1998;-0.0296;0.0143;-0.0137;399.0;-37.2;-39.49;-45.24;139.52;-1.96;-5.27;5.0;32.249;39.468952;-0.340972;69.4;NaN;;15.076;;0 / 19;2584;2021-10-20 21:02:54:991
-0.105;0.8591;9.842;0.8523;0.1101;9.7683;-0.0427;0.1084;-0.1034;-0.0304;0.0275;-0.0121;399.0;-37.2;-39.49;-45.24;139.52;-1.96;-5.27;5.0;32.249;39.468952;-0.340972;69.4;NaN;;15.076;;0 / 19;2604;2021-10-20 21:02:55:011
-0.105;0.8591;9.842;0.8571;0.2059;9.7683;-0.0427;0.1084;-0.1034;-0.0304;0.0275;-0.0121;399.0;-37.8;-39.66;-45.41;139.29;-0.64;-4.99;5.0;32.249;39.468952;-0.340972;69.4;NaN;;15.076;;0 / 19;2625;2021-10-20 21:02:55:032
-0.191;0.873;9.756;0.8571;0.2059;9.7683;0.019;0.1431;-0.0212;-0.0315;0.0316;-0.0136;399.0;-37.8;-39.66;-45.41;139.29;-0.64;-4.99;5.0;32.249;39.468952;-0.340972;69.4;NaN;;15.076;;0 / 19;2645;2021-10-20 21:02:55:052
-0.196;0.9281;9.7511;0.9146;0.1772;9.7636;0.019;0.1431;-0.0212;-0.0315;0.0316;-0.0136;399.0;-37.91;-39.71;-45.41;139.29;-0.64;-4.99;5.0;32.249;39.468952;-0.340972;69.4;NaN;;15.076;;0 / 19;2665;2021-10-20 21:02:55:072
-0.196;0.9281;9.7511;0.8763;0.3017;9.7636;0.0201;0.035;0.0071;-0.0319;0.0292;-0.0165;399.0;-37.91;-39.71;-45.41;139.29;-0.64;-4.99;5.0;32.249;39.468952;-0.340972;69.4;NaN;;15.076;;0 / 19;2684;2021-10-20 21:02:55:091
-0.27;0.9071;9.6461;0.8763;0.3017;9.7636;0.0095;-0.0034;0.1442;-0.0267;0.0234;-0.0173;404.0;-37.99;-39.79;-45.3;138.7;-1.76;-5.13;5.0;32.249;39.468952;-0.340972;69.4;NaN;;15.076;;0 / 19;2704;2021-10-20 21:02:55:111
-0.239;0.9431;9.617;0.9625;0.2059;9.7588;0.0095;-0.0034;0.1442;-0.0267;0.0234;-0.0173;404.0;-37.99;-39.79;-45.3;138.7;-1.76;-5.13;5.0;32.249;39.468952;-0.340972;69.4;NaN;;15.076;;0 / 19;2724;2021-10-20 21:02:55:131
-0.239;0.9431;9.617;0.8954;0.2442;9.7636;0.0189;-0.0215;0.1445;-0.023;0.0201;-0.0162;404.0;-37.91;-39.54;-45.6;138.7;-1.76;-5.13;5.0;32.249;39.468952;-0.340972;69.4;NaN;;15.076;;0 / 19;2744;2021-10-20 21:02:55:151
-0.2599;0.974;9.8351;0.8954;0.2442;9.7636;0.0189;-0.0215;0.1445;-0.023;0.0201;-0.0162;404.0;-37.91;-39.54;-45.6;138.7;-1.76;-5.13;5.0;32.249;39.468952;-0.340972;69.4;NaN;;15.076;;0 / 19;2764;2021-10-20 21:02:55:171
-0.315;0.9641;9.878;0.929;0.2825;9.7588;0.0392;-0.0288;-0.1545;-0.0173;0.0166;-4.0E-4;404.0;-37.61;-39.71;-45.54;139.04;-1.65;-5.44;5.0;32.249;39.468952;-0.340972;69.4;NaN;;15.076;;0 / 19;2785;2021-10-20 21:02:55:192
-0.143;0.911;9.921;0.9098;0.1724;9.7636;0.0059;-0.0186;-0.1271;-0.0056;0.0161;0.0113;404.0;-37.61;-39.71;-45.54;139.04;-1.65;-5.44;5.0;31.31;39.468952;-0.340972;69.4;NaN;;15.076;;0 / 19;2804;2021-10-20 21:02:55:211
-0.143;0.911;9.921;0.9098;0.1724;9.7636;0.0059;-0.0186;-0.1271;-0.0056;0.0161;0.0113;404.0;-37.26;-39.84;-45.41;139.04;-1.65;-5.44;5.0;31.31;39.468952;-0.340972;69.4;NaN;;15.076;;0 / 19;2825;2021-10-20 21:02:55:232
-0.0739;0.935;9.825;0.905;0.0527;9.7636;-0.1465;-0.0185;-0.168;3.0E-4;0.0143;0.0109;404.0;-37.26;-39.84;-45.41;139.04;-1.65;-5.44;5.0;31.31;39.468952;-0.340972;69.4;NaN;;15.076;;0 / 19;2845;2021-10-20 21:02:55:252
0.0161;0.9311;9.605;0.9146;0.0144;9.7636;-0.1893;0.0515;0.145;3.0E-4;0.0143;0.0109;404.0;-37.2;-39.66;-45.41;140.56;-0.31;-5.3;5.0;31.31;39.468952;-0.340972;69.4;NaN;;15.076;;0 / 19;2865;2021-10-20 21:02:55:272
0.0161;0.9311;9.605;0.9146;0.0144;9.7636;-0.1893;0.0515;0.145;0.0048;0.0021;0.0029;404.0;-37.2;-39.66;-45.41;140.56;-0.31;-5.3;5.0;31.31;39.468952;-0.340972;69.4;NaN;;15.076;;0 / 19;2885;2021-10-20 21:02:55:292
-0.1669;0.993;9.5981;0.9577;0.1389;9.7588;-0.1744;-0.0699;0.3084;0.0078;-0.0159;-0.0098;404.0;-37.56;-39.79;-44.7;140.56;-0.31;-5.3;5.0;31.31;39.468952;-0.340972;69.4;NaN;;15.076;;0 / 19;2904;2021-10-20 21:02:55:311
-0.21;1.0361;9.732;1.0056;0.1484;9.754;-0.0444;-0.0803;-0.005;0.0078;-0.0159;-0.0098;404.0;-37.56;-39.79;-44.7;140.56;-0.31;-5.3;5.0;31.31;39.468952;-0.340972;69.4;NaN;;15.076;;0 / 19;2925;2021-10-20 21:02:55:332
-0.1931;0.974;9.78;1.0056;0.1484;9.754;-0.0444;-0.0803;-0.005;0.0078;-0.0159;-0.0098;404.0;-37.26;-39.54;-44.64;140.65;-0.87;-5.89;5.0;31.31;39.468952;-0.340972;69.4;NaN;;15.076;;0 / 19;2944;2021-10-20 21:02:55:351
-0.1931;0.974;9.78;0.9385;0.1628;9.7588;-0.0243;-0.0782;-0.0324;0.0078;-0.0159;-0.0098;404.0;-37.26;-39.54;-44.64;140.65;-0.87;-5.89;5.0;31.31;39.468952;-0.340972;69.4;NaN;;15.076;;0 / 19;2964;2021-10-20 21:02:55:371
-0.203;0.986;9.7271;0.9433;0.1772;9.7588;0.0036;-0.0597;0.0628;0.0078;-0.0159;-0.0098;404.0;-37.39;-39.24;-44.4;140.65;-0.87;-5.89;5.0;31.31;39.468952;-0.340972;69.4;NaN;;15.076;;0 / 19;2984;2021-10-20 21:02:55:391
-0.09;1.002;9.677;0.9433;0.1772;9.7588;0.0036;-0.0597;0.0628;0.0078;-0.0159;-0.0098;404.0;-37.39;-39.24;-44.4;140.65;-0.87;-5.89;5.0;31.31;39.468952;-0.340972;69.4;NaN;;15.076;;0 / 19;3004;2021-10-20 21:02:55:411
-0.09;1.002;9.677;1.0247;0.067;9.754;-0.0996;-0.0704;0.0898;0.0078;-0.0159;-0.0098;404.0;-37.26;-39.41;-44.29;140.22;-0.39;-6.0;5.0;31.31;39.468952;-0.340972;69.4;NaN;;15.076;;0 / 19;3024;2021-10-20 21:02:55:431
-0.1099;1.0001;9.768;0.9816;0.1341;9.7588;-0.0228;-0.0356;-0.0061;0.0078;-0.0159;-0.0098;403.0;-37.26;-39.41;-44.29;140.22;-0.39;-6.0;5.0;31.31;39.468952;-0.340972;69.4;NaN;;15.076;;0 / 19;3044;2021-10-20 21:02:55:451
-0.122;0.938;9.8831;0.9816;0.1341;9.7588;-0.0228;-0.0356;-0.0061;0.0201;-0.0184;-0.0088;403.0;-37.01;-39.19;-44.4;140.22;-0.39;-6.0;5.0;31.31;39.468952;-0.340972;69.4;NaN;;15.076;;0 / 19;3065;2021-10-20 21:02:55:472
-0.141;0.962;9.866;0.9577;0.1197;9.7588;-0.0466;-0.0045;-0.1017;0.0201;-0.0184;-0.0088;403.0;-37.01;-39.19;-44.4;140.22;-0.39;-6.0;5.0;31.31;39.468952;-0.340972;69.4;NaN;;15.076;;0 / 19;3085;2021-10-20 21:02:55:492
-0.141;0.962;9.866;0.9912;0.1484;9.754;-1.0E-4;-0.0383;-0.007;0.0175;-0.0128;0.0072;403.0;-37.61;-39.11;-44.29;138.93;-0.87;-5.8;5.0;31.31;39.468952;-0.340972;69.4;NaN;;15.076;;0 / 19;3105;2021-10-20 21:02:55:512
-0.201;1.041;9.7421;1.0487;0.2203;9.7492;-1.0E-4;-0.0383;-0.007;0.0175;-0.0128;0.0072;403.0;-37.61;-39.11;-44.29;138.93;-0.87;-5.8;5.0;31.424;39.468952;-0.340972;69.4;NaN;;15.076;;0 / 19;3125;2021-10-20 21:02:55:532
-0.1931;0.998;9.603;1.0487;0.2203;9.7492;0.0565;-0.0758;0.0608;0.0171;-0.0092;0.0147;403.0;-37.56;-39.06;-44.59;138.93;-0.87;-5.8;5.0;31.424;39.468952;-0.340972;69.4;NaN;;15.076;;0 / 19;3145;2021-10-20 21:02:55:552
-0.1931;0.998;9.603;1.0199;0.1532;9.754;0.0565;-0.0758;0.0608;0.0171;-0.0092;0.0147;403.0;-37.56;-39.06;-44.59;138.93;-0.87;-5.8;5.0;31.424;39.468952;-0.340972;69.4;NaN;;15.076;;0 / 19;3165;2021-10-20 21:02:55:572
-0.141;1.043;9.636;1.0199;0.1532;9.754;-0.0093;-0.0285;0.1419;0.0157;-0.0015;0.025;403.0;-37.56;-39.06;-44.59;138.93;-0.87;-5.8;5.0;31.424;39.468952;-0.340972;69.4;NaN;;15.076;;0 / 19;3184;2021-10-20 21:02:55:591
-0.141;1.043;9.636;1.0199;0.1532;9.754;-0.0093;-0.0285;0.1419;0.0157;-0.0015;0.025;403.0;-37.56;-39.06;-44.59;138.93;-0.87;-5.8;5.0;31.424;39.468952;-0.340972;69.4;NaN;;15.076;;0 / 19;3204;2021-10-20 21:02:55:611
-0.143;1.034;9.641;1.0487;0.1389;9.7492;-0.0093;-0.0285;0.1419;0.0157;-0.0015;0.025;403.0;-37.56;-39.06;-44.89;139.28;-0.81;-6.14;5.0;31.424;39.468952;-0.340972;69.4;NaN;;15.076;;0 / 19;3224;2021-10-20 21:02:55:631
-0.143;1.034;9.641;1.0487;0.1389;9.7492;-0.0093;-0.0285;0.1419;0.0157;-0.0015;0.025;403.0;-37.56;-39.06;-44.89;139.28;-0.81;-6.14;5.0;31.424;39.468952;-0.340972;69.4;NaN;;15.076;;0 / 19;3245;2021-10-20 21:02:55:652
-0.081;0.974;9.77;0.9529;0.0527;9.7588;0.0022;0.0075;-0.1178;0.0131;0.0077;0.0403;403.0;-37.56;-39.06;-45.11;139.28;-0.81;-6.14;5.0;31.424;39.468952;-0.340972;69.4;NaN;;15.076;;0 / 19;3265;2021-10-20 21:02:55:672
-0.081;0.974;9.77;0.9529;0.0527;9.7588;0.0022;0.0075;-0.1178;0.0131;0.0077;0.0403;403.0;-37.56;-39.06;-45.11;139.28;-0.81;-6.14;5.0;31.424;39.468952;-0.340972;69.4;NaN;;15.076;;0 / 19;3284;2021-10-20 21:02:55:691
-0.174;1.0241;9.7541;1.0104;0.1628;9.754;0.0148;9.0E-4;0.0722;0.0095;0.0036;0.0377;403.0;-37.91;-39.41;-45.0;139.03;-0.95;-5.91;5.0;31.424;39.468952;-0.340972;69.4;NaN;;15.076;;0 / 19;3304;2021-10-20 21:02:55:711
-0.196;0.986;9.687;1.0008;0.1772;9.754;0.0148;9.0E-4;0.0722;0.0095;0.0036;0.0377;403.0;-37.91;-39.41;-45.0;139.03;-0.95;-5.91;5.0;31.424;39.468952;-0.340972;69.4;NaN;;15.076;;0 / 19;3324;2021-10-20 21:02:55:731
-0.196;0.986;9.687;1.0008;0.1772;9.754;0.0559;-0.0503;0.0855;0.0073;0.0032;0.036;403.0;-37.99;-39.41;-44.81;139.03;-0.95;-5.91;5.0;31.424;39.468952;-0.340972;69.4;NaN;;15.076;;0 / 19;3344;2021-10-20 21:02:55:751
-0.155;1.038;9.708;1.0295;0.1101;9.754;-0.0531;-0.0478;0.0444;0.0056;0.0032;0.0305;403.0;-37.99;-39.41;-44.81;139.03;-0.95;-5.91;5.0;31.424;39.468952;-0.340972;69.4;NaN;;15.076;;0 / 19;3365;2021-10-20 21:02:55:772
-0.0859;0.957;9.804;1.0295;0.1101;9.754;-0.0531;-0.0478;0.0444;0.0056;0.0032;0.0305;403.0;-37.86;-39.19;-44.51;139.3;-0.64;-6.03;5.0;31.424;39.468952;-0.340972;69.4;NaN;;15.076;;0 / 19;3384;2021-10-20 21:02:55:791
-0.0859;0.957;9.804;1.0295;0.1101;9.754;-0.0531;-0.0478;0.0444;0.0056;0.0032;0.0305;403.0;-37.86;-39.19;-44.51;139.3;-0.64;-6.03;5.0;31.424;39.468952;-0.340972;69.4;NaN;;15.076;;0 / 19;3404;2021-10-20 21:02:55:811
-0.0859;0.957;9.804;1.0295;0.1101;9.754;-0.0531;-0.0478;0.0444;0.0056;0.0032;0.0305;403.0;-37.86;-39.19;-44.51;139.3;-0.64;-6.03;5.0;31.424;39.468952;-0.340972;69.4;NaN;;15.076;;0 / 19;3425;2021-10-20 21:02:55:832
-0.0859;0.957;9.804;1.0295;0.1101;9.754;-0.0531;-0.0478;0.0444;0.0056;0.0032;0.0305;403.0;-37.86;-39.19;-44.51;139.3;-0.64;-6.03;5.0;31.424;39.468952;-0.340972;69.4;NaN;;15.076;;0 / 19;3445;2021-10-20 21:02:55:852
-0.0859;0.957;9.804;1.0295;0.1101;9.754;-0.0531;-0.0478;0.0444;0.0056;0.0032;0.0305;403.0;-37.86;-39.19;-44.51;139.3;-0.64;-6.03;5.0;31.424;39.468952;-0.340972;69.4;NaN;;15.076;;0 / 19;3464;2021-10-20 21:02:55:871
-0.0859;0.957;9.804;1.0295;0.1101;9.754;-0.0531;-0.0478;0.0444;0.0056;0.0032;0.0305;403.0;-37.86;-39.19;-44.51;139.3;-0.64;-6.03;5.0;31.424;39.468952;-0.340972;69.4;NaN;;15.076;;0 / 19;3485;2021-10-20 21:02:55:892
-0.081;0.95;9.857;0.9194;0.067;9.7636;-0.0802;0.035;-0.0238;0.005;0.0021;0.0246;403.0;-37.69;-38.94;-44.34;138.93;-0.39;-5.38;5.0;31.424;39.468952;-0.340972;69.4;NaN;;15.076;;0 / 19;3505;2021-10-20 21:02:55:912
-0.081;0.95;9.857;0.9194;0.067;9.7636;-0.0802;0.035;-0.0238;0.005;0.0021;0.0246;403.0;-37.69;-38.94;-44.34;138.93;-0.39;-5.38;5.0;31.424;39.468952;-0.340972;69.4;NaN;;15.076;;0 / 19;3525;2021-10-20 21:02:55:932
-0.1099;0.998;9.7511;0.972;0.1101;9.7588;-0.0098;-0.0038;0.0441;-0.0018;-0.0029;-5.0E-4;403.0;-36.79;-39.11;-44.64;138.93;-0.39;-5.38;5.0;31.411;39.468952;-0.340972;69.4;NaN;;15.076;;0 / 19;3545;2021-10-20 21:02:55:952
-0.0709;0.947;9.7031;0.9625;0.067;9.7588;-0.0098;-0.0038;0.0441;-0.0018;-0.0029;-5.0E-4;403.0;-36.79;-39.11;-44.64;138.93;-0.39;-5.38;5.0;31.411;39.468952;-0.340972;69.4;NaN;;15.076;;0 / 19;3564;2021-10-20 21:02:55:971
-0.0709;0.947;9.7031;0.9625;0.067;9.7588;-0.0771;0.0362;0.0851;-0.0023;-0.0033;-0.0095;403.0;-37.2;-39.19;-44.7;140.04;-0.39;-5.63;5.0;31.411;39.468952;-0.340972;69.4;NaN;;15.076;;0 / 19;3584;2021-10-20 21:02:55:991
-0.095;1.022;9.629;1.0199;0.1101;9.754;-0.0771;0.0362;0.0851;-0.0023;-0.0033;-0.0095;403.0;-37.2;-39.19;-44.7;140.04;-0.39;-5.63;5.0;31.411;39.468952;-0.340972;69.4;NaN;;15.076;;0 / 19;3604;2021-10-20 21:02:56:011
-0.095;1.022;9.629;1.0199;0.1101;9.754;0.0734;-0.0457;0.0715;-5.0E-4;-0.004;-0.0212;403.0;-37.09;-39.24;-44.51;140.04;-0.39;-5.63;5.0;31.411;39.468952;-0.340972;69.4;NaN;;15.076;;0 / 19;3624;2021-10-20 21:02:56:031
-0.186;1.002;9.7391;0.996;0.1628;9.754;0.0192;-0.0048;0.0034;-5.0E-4;-0.004;-0.0212;403.0;-37.2;-39.19;-44.29;139.75;-0.95;-5.83;5.0;31.411;39.468952;-0.340972;69.4;NaN;;15.076;;0 / 19;3645;2021-10-20 21:02:56:052
-0.0881;0.9881;9.732;0.9816;0.0814;9.7588;0.0192;-0.0048;0.0034;-5.0E-4;-0.004;-0.0212;403.0;-37.2;-39.19;-44.29;139.75;-0.95;-5.83;5.0;31.411;39.468952;-0.340972;69.4;NaN;;15.076;;0 / 19;3665;2021-10-20 21:02:56:072
-0.0881;0.9881;9.732;0.9816;0.0814;9.7588;-0.0482;-0.0454;0.017;7.0E-4;-0.0036;-0.0192;403.0;-37.2;-39.11;-44.21;139.75;-0.95;-5.83;5.0;31.411;39.468952;-0.340972;69.4;NaN;;15.076;;0 / 19;3684;2021-10-20 21:02:56:091
-0.174;1.0001;9.797;0.9768;0.1628;9.754;-0.0482;-0.0454;0.017;7.0E-4;-0.0036;-0.0192;403.0;-37.2;-39.11;-44.21;139.75;-0.95;-5.83;5.0;31.411;39.468952;-0.340972;69.4;NaN;;15.076;;0 / 19;3705;2021-10-20 21:02:56:112
-0.174;1.0001;9.797;0.9768;0.1628;9.754;0.021;-0.0034;-0.1057;7.0E-4;-0.0036;-0.0192;402.0;-37.09;-39.11;-44.1;139.67;-0.95;-5.72;5.0;31.411;39.468952;-0.340972;69.4;NaN;;15.076;;0 / 19;3724;2021-10-20 21:02:56:131
-0.165;1.041;9.902;0.996;0.1867;9.754;0.0077;-0.0024;-0.1058;7.0E-4;-0.0036;-0.0192;402.0;-37.09;-39.11;-44.1;139.67;-0.95;-5.72;5.0;31.411;39.468952;-0.340972;69.4;NaN;;15.076;;0 / 19;3744;2021-10-20 21:02:56:151
-0.136;1.019;9.696;1.0151;0.1101;9.754;0.0077;-0.0024;-0.1058;7.0E-4;-0.0036;-0.0192;402.0;-37.09;-39.19;-43.99;139.67;-0.95;-5.72;5.0;31.411;39.468952;-0.340972;69.4;NaN;;15.076;;0 / 19;3764;2021-10-20 21:02:56:171
-0.136;1.019;9.696;1.0151;0.1101;9.754;-0.0736;-0.0276;0.0574;0.0054;-0.0023;-0.0129;402.0;-37.09;-39.19;-43.99;139.67;-0.95;-5.72;5.0;31.411;39.468952;-0.340972;69.4;NaN;;15.076;;0 / 19;3785;2021-10-20 21:02:56:192
-0.141;1.098;9.7511;1.0918;0.1484;9.7444;-0.0736;-0.0276;0.0574;0.0054;-0.0023;-0.0129;402.0;-37.09;-39.19;-43.99;139.67;-0.95;-5.72;5.0;31.411;39.468952;-0.340972;69.4;NaN;;15.076;;0 / 19;3805;2021-10-20 21:02:56:212
-0.2171;1.0571;9.8471;1.0534;0.2298;9.7492;-0.0596;-0.0673;0.0982;0.0063;-0.003;-0.0118;402.0;-36.9;-39.19;-44.21;140.21;-0.87;-6.39;5.0;31.411;39.468952;-0.340972;69.4;NaN;;15.076;;0 / 19;3824;2021-10-20 21:02:56:231
-0.2171;1.0571;9.8471;1.0534;0.2298;9.7492;0.0772;-0.0507;-0.0928;0.0078;-0.0023;-0.0093;402.0;-37.31;-39.24;-44.04;140.21;-0.87;-6.39;5.0;31.411;39.468952;-0.340972;69.4;NaN;;15.076;;0 / 19;3845;2021-10-20 21:02:56:252
-0.057;1.065;9.7061;1.0822;0.0287;9.7492;0.0772;-0.0507;-0.0928;0.0078;-0.0023;-0.0093;402.0;-37.31;-39.24;-44.04;140.21;-0.87;-6.39;5.0;32.547;39.468952;-0.340972;69.4;NaN;;15.076;;0 / 19;3864;2021-10-20 21:02:56:271
-0.093;1.043;9.557;1.0534;0.0575;9.7492;-0.0724;-0.0735;0.1519;0.0132;-0.0011;-0.0041;402.0;-37.39;-39.66;-43.8;141.09;-0.34;-6.17;5.0;32.547;39.468952;-0.340972;69.4;NaN;;15.076;;0 / 19;3885;2021-10-20 21:02:56:292
-0.093;1.043;9.557;1.0534;0.0575;9.7492;-0.0724;-0.0735;0.1519;0.0132;-0.0011;-0.0041;402.0;-37.39;-39.66;-43.8;141.09;-0.34;-6.17;5.0;32.547;39.468952;-0.340972;69.4;NaN;;15.076;;0 / 19;3904;2021-10-20 21:02:56:311
-0.1;1.0481;9.591;1.0774;0.1245;9.7492;-0.0448;-0.0535;0.1513;0.0157;-0.0012;-0.0032;402.0;-37.31;-39.54;-43.69;141.09;-0.34;-6.17;5.0;32.547;39.468952;-0.340972;69.4;NaN;;15.076;;0 / 19;3924;2021-10-20 21:02:56:331
-0.196;1.1291;9.78;1.087;0.2059;9.7444;-0.0038;-0.1041;0.0691;0.0219;-4.0E-4;-5.0E-4;402.0;-37.31;-39.54;-43.69;141.09;-0.34;-6.17;5.0;32.547;39.468952;-0.340972;69.4;NaN;;15.076;;0 / 19;3945;2021-10-20 21:02:56:352
-0.196;1.1291;9.78;1.087;0.2059;9.7444;-0.0038;-0.1041;0.0691;0.0219;-4.0E-4;-5.0E-4;402.0;-37.5;-39.41;-43.44;139.9;-1.2;-6.36;5.0;32.547;39.468952;-0.340972;69.4;NaN;;15.076;;0 / 19;3965;2021-10-20 21:02:56:372
-0.174;1.0691;9.852;1.063;0.1628;9.7492;0.078;-0.0408;-0.0271;0.0237;3.0E-4;0.004;402.0;-37.5;-39.41;-43.44;139.9;-1.2;-6.36;5.0;32.547;39.468952;-0.340972;69.4;NaN;;15.076;;0 / 19;3984;2021-10-20 21:02:56:391
-0.057;1.031;9.687;1.063;0.0814;9.7492;-0.0853;0.009;0.0537;0.0223;-4.0E-4;0.0019;402.0;-36.96;-39.41;-43.5;139.9;-1.2;-6.36;5.0;32.547;39.468952;-0.340972;69.4;NaN;;15.076;;0 / 19;4004;2021-10-20 21:02:56:411
-0.057;1.031;9.687;1.063;0.0814;9.7492;-0.0853;0.009;0.0537;0.0223;-4.0E-4;0.0019;402.0;-36.96;-39.41;-43.5;139.9;-1.2;-6.36;5.0;32.547;39.468952;-0.340972;69.4;NaN;;15.076;;0 / 19;4024;2021-10-20 21:02:56:431
-0.09;1.0721;9.641;1.063;0.0814;9.7492;-0.085;-8.0E-4;0.135;0.0198;-0.0018;-0.0016;399.0;-36.71;-39.19;-43.69;140.33;-0.48;-6.22;5.0;32.547;39.468952;-0.340972;69.4;NaN;;15.076;;0 / 19;4044;2021-10-20 21:02:56:451
-0.09;1.0721;9.641;1.063;0.0814;9.7492;-0.085;-8.0E-4;0.135;0.0198;-0.0018;-0.0016;399.0;-36.71;-39.19;-43.69;140.33;-0.48;-6.22;5.0;32.547;39.468952;-0.340972;69.4;NaN;;15.076;;0 / 19;4065;2021-10-20 21:02:56:472
-0.1931;1.0931;9.7271;1.0965;0.2203;9.7444;0.025;-0.0079;0.1071;0.0157;-0.0027;-0.0034;399.0;-36.79;-39.24;-43.61;140.33;-0.48;-6.22;5.0;32.547;39.468952;-0.340972;69.4;NaN;;15.076;;0 / 19;4085;2021-10-20 21:02:56:492
-0.1931;1.0931;9.7271;1.0965;0.2203;9.7444;0.025;-0.0079;0.1071;0.0157;-0.0027;-0.0034;399.0;-36.79;-39.24;-43.61;140.33;-0.48;-6.22;5.0;32.547;39.468952;-0.340972;69.4;NaN;;15.076;;0 / 19;4104;2021-10-20 21:02:56:511
-0.1931;1.0571;9.789;1.0678;0.1628;9.7492;0.0392;-0.0301;-0.0297;0.0124;-0.0021;-0.0076;399.0;-36.79;-39.19;-43.74;140.06;-0.95;-6.25;5.0;32.547;39.468952;-0.340972;69.4;NaN;;15.076;;0 / 19;4124;2021-10-20 21:02:56:531
-0.0709;1.007;9.921;0.9816;0.067;9.7588;-0.015;0.0127;-0.1388;0.0105;-0.0033;-0.0148;399.0;-36.79;-39.19;-43.74;140.06;-0.95;-6.25;5.0;32.547;39.468952;-0.340972;69.4;NaN;;15.076;;0 / 19;4144;2021-10-20 21:02:56:551
-0.0709;1.007;9.921;0.9816;0.067;9.7588;-0.015;0.0127;-0.1388;0.0105;-0.0033;-0.0148;399.0;-37.2;-39.41;-43.8;140.06;-0.95;-6.25;5.0;32.547;39.468952;-0.340972;69.4;NaN;;15.076;;0 / 19;4165;2021-10-20 21:02:56:572
-0.1691;1.043;9.773;1.0151;0.1915;9.754;-2.0E-4;0.0282;-0.0301;0.0033;-0.0052;-0.0201;399.0;-37.2;-39.41;-43.8;140.06;-0.95;-6.25;5.0;30.652;39.468952;-0.340972;69.4;NaN;;15.076;;0 / 19;4185;2021-10-20 21:02:56:592
-0.201;1.077;9.591;1.0822;0.1963;9.7444;0.0549;-0.0126;0.1879;7.0E-4;-0.0045;-0.0165;399.0;-37.39;-39.41;-43.69;139.73;-1.12;-5.94;5.0;30.652;39.468952;-0.340972;69.4;NaN;;15.076;;0 / 19;4204;2021-10-20 21:02:56:611
-0.201;1.077;9.591;1.0822;0.1963;9.7444;0.0549;-0.0126;0.1879;7.0E-4;-0.0045;-0.0165;399.0;-37.39;-39.41;-43.69;139.73;-1.12;-5.94;5.0;30.652;39.468952;-0.340972;69.4;NaN;;15.076;;0 / 19;4224;2021-10-20 21:02:56:631
-0.141;1.062;9.756;1.0439;0.1484;9.7492;-0.0278;0.0282;0.0108;7.0E-4;-0.0045;-0.0165;399.0;-37.26;-39.66;-44.04;139.73;-1.12;-5.94;5.0;30.652;39.468952;-0.340972;69.4;NaN;;15.076;;0 / 19;4244;2021-10-20 21:02:56:651
0.023;1.055;9.7781;1.0104;-0.0144;9.754;-0.1779;0.0278;-0.03;7.0E-4;-0.0045;-0.0165;399.0;-37.26;-39.66;-44.04;139.73;-1.12;-5.94;5.0;30.652;39.468952;-0.340972;69.4;NaN;;15.076;;0 / 19;4264;2021-10-20 21:02:56:671
-0.0709;1.062;9.593;1.0104;-0.0144;9.754;-0.1779;0.0278;-0.03;-0.0016;8.0E-4;-0.0058;399.0;-37.26;-39.41;-43.99;140.44;0.08;-5.91;5.0;30.652;39.468952;-0.340972;69.4;NaN;;15.076;;0 / 19;4285;2021-10-20 21:02:56:692
-0.0709;1.062;9.593;1.0726;0.0958;9.7492;0.0398;0.0138;0.256;-0.0015;8.0E-4;-0.0016;399.0;-37.26;-39.41;-43.99;140.44;0.08;-5.91;5.0;30.652;39.468952;-0.340972;69.4;NaN;;15.076;;0 / 19;4305;2021-10-20 21:02:56:712
-0.318;1.089;9.488;1.1205;0.3783;9.7348;0.1895;-0.0406;0.2424;-0.0015;8.0E-4;-0.0016;399.0;-37.26;-39.19;-43.91;140.44;0.08;-5.91;5.0;30.652;39.468952;-0.340972;69.4;NaN;;15.076;;0 / 19;4325;2021-10-20 21:02:56:732
-0.318;1.089;9.488;1.1205;0.3783;9.7348;0.1895;-0.0406;0.2424;3.0E-4;0.0014;0.0072;399.0;-37.26;-39.19;-43.91;140.44;0.08;-5.91;5.0;30.652;39.468952;-0.340972;69.4;NaN;;15.076;;0 / 19;4345;2021-10-20 21:02:56:752
-0.244;1.007;9.6551;1.0199;0.249;9.7492;0.1892;0.0278;0.2015;0.0026;0.003;0.0124;399.0;-37.31;-39.11;-44.29;139.54;-1.46;-5.97;5.0;30.652;39.468952;-0.340972;69.4;NaN;;15.076;;0 / 19;4365;2021-10-20 21:02:56:772
-0.081;0.9071;10.187;0.8571;0.0383;9.7683;-0.0974;0.151;-0.4932;0.0026;0.003;0.0124;400.0;-37.31;-39.11;-44.29;139.54;-1.46;-5.97;5.0;30.652;39.468952;-0.340972;69.4;NaN;;15.076;;0 / 19;4384;2021-10-20 21:02:56:791
-0.019;0.8231;10.299;0.8236;-0.0239;9.7731;-0.0974;0.151;-0.4932;3.0E-4;0.0023;0.0105;400.0;-37.39;-39.24;-44.51;139.54;-1.46;-5.97;5.0;30.652;39.468952;-0.340972;69.4;NaN;;15.076;;0 / 19;4404;2021-10-20 21:02:56:811
-0.019;0.8231;10.299;0.8236;-0.0239;9.7731;-0.0702;0.2455;-0.4114;3.0E-4;0.0023;0.0105;400.0;-37.39;-39.24;-44.51;139.54;-1.46;-5.97;5.0;30.652;39.468952;-0.340972;69.4;NaN;;15.076;;0 / 19;4425;2021-10-20 21:02:56:832
-0.122;0.8351;9.7751;0.8619;0.1245;9.7683;-0.0157;0.185;0.0115;-0.0109;4.0E-4;0.0037;400.0;-37.39;-39.36;-44.7;139.77;0.14;-4.82;5.0;30.652;39.468952;-0.340972;69.4;NaN;;15.076;;0 / 19;4445;2021-10-20 21:02:56:852
-0.189;1.026;9.399;1.087;0.2251;9.7444;-0.0157;0.185;0.0115;-0.0283;-4.0E-4;-0.0062;400.0;-37.39;-39.36;-44.7;139.77;0.14;-4.82;5.0;30.652;39.468952;-0.340972;69.4;NaN;;15.076;;0 / 19;4464;2021-10-20 21:02:56:871
-0.189;1.026;9.399;1.087;0.2251;9.7444;0.0251;0.0024;0.2845;-0.0283;-4.0E-4;-0.0062;400.0;-37.2;-39.24;-45.0;139.77;0.14;-4.82;5.0;30.652;39.468952;-0.340972;69.4;NaN;;15.076;;0 / 19;4485;2021-10-20 21:02:56:892
-0.258;1.053;9.5141;1.0965;0.249;9.7444;0.1068;-0.0536;0.2044;-0.0371;-0.0011;-0.0111;400.0;-37.2;-39.24;-45.0;139.77;0.14;-4.82;5.0;31.775;39.468952;-0.340972;69.4;NaN;;15.076;;0 / 19;4504;2021-10-20 21:02:56:911
-0.234;0.983;9.818;0.9577;0.2298;9.7588;0.1068;-0.0536;0.2044;-0.0403;-0.0016;-0.0144;400.0;-37.2;-39.36;-44.81;139.94;-1.45;-6.42;5.0;31.775;39.468952;-0.340972;69.4;NaN;;15.076;;0 / 19;4524;2021-10-20 21:02:56:931
-0.234;0.983;9.818;0.9577;0.2298;9.7588;0.0932;0.0066;9.0E-4;-0.0403;-0.0016;-0.0144;400.0;-37.2;-39.36;-44.81;139.94;-1.45;-6.42;5.0;31.775;39.468952;-0.340972;69.4;NaN;;15.076;;0 / 19;4545;2021-10-20 21:02:56:952
-0.0619;0.861;9.9071;0.8619;0.0527;9.7683;-0.0841;0.1296;-0.1476;-0.0363;-8.0E-4;-0.012;400.0;-37.31;-38.89;-44.81;139.94;-1.45;-6.42;5.0;31.775;39.468952;-0.340972;69.4;NaN;;15.076;;0 / 19;4565;2021-10-20 21:02:56:972
-0.009;0.9;9.7991;0.8715;0.0814;9.7683;-0.0841;0.1296;-0.1476;-0.0252;0.0011;-0.0037;400.0;-37.31;-38.89;-44.81;139.94;-1.45;-6.42;5.0;31.775;39.468952;-0.340972;69.4;NaN;;15.076;;0 / 19;4584;2021-10-20 21:02:56:991
-0.009;0.9;9.7991;0.8715;0.0814;9.7683;-0.1525;0.0838;-0.1198;-0.0252;0.0011;-0.0037;400.0;-37.39;-39.41;-45.24;139.6;-0.48;-5.1;5.0;31.775;39.468952;-0.340972;69.4;NaN;;15.076;;0 / 19;4604;2021-10-20 21:02:57:011
-0.078;0.935;9.636;0.9529;0.1101;9.7588;-0.1525;0.0838;-0.1198;-0.0212;0.0017;-0.0016;400.0;-37.39;-39.41;-45.24;139.6;-0.48;-5.1;5.0;31.775;39.468952;-0.340972;69.4;NaN;;15.076;;0 / 19;4624;2021-10-20 21:02:57:031
-0.287;0.9881;9.605;1.0199;0.2777;9.7492;0.0373;0.008;0.1397;-0.0166;0.0034;0.0023;400.0;-37.56;-39.41;-45.41;139.6;-0.48;-5.1;5.0;31.775;39.468952;-0.340972;69.4;NaN;;15.076;;0 / 19;4645;2021-10-20 21:02:57:052
-0.28;0.9161;9.792;1.0199;0.2777;9.7492;0.0905;0.0699;-0.0095;-0.0166;0.0034;0.0023;400.0;-37.56;-39.41;-45.41;139.6;-0.48;-5.1;5.0;31.775;39.468952;-0.340972;69.4;NaN;;15.076;;0 / 19;4664;2021-10-20 21:02:57:071
-0.28;0.9161;9.792;0.8571;0.2155;9.7683;0.0905;0.0699;-0.0095;-0.0158;0.0014;8.0E-4;400.0;-37.56;-39.41;-45.71;138.25;-1.26;-5.01;5.0;31.775;39.468952;-0.340972;69.4;NaN;;15.076;;0 / 19;4684;2021-10-20 21:02:57:091
0.1841;0.8441;9.9911;0.8092;-0.2251;9.7731;-0.0732;0.1622;-0.2271;-0.0158;0.0014;8.0E-4;404.0;-37.56;-39.41;-45.71;138.25;-1.26;-5.01;5.0;31.775;39.468952;-0.340972;69.4;NaN;;15.076;;0 / 19;4704;2021-10-20 21:02:57:111
-0.105;0.813;9.7511;0.8332;0.1389;9.7731;-0.0732;0.1622;-0.2271;-0.0173;-0.0019;-0.0027;404.0;-37.69;-39.36;-45.84;138.25;-1.26;-5.01;5.0;31.775;39.468952;-0.340972;69.4;NaN;;15.076;;0 / 19;4725;2021-10-20 21:02:57:132
-0.105;0.813;9.7511;0.8332;0.1389;9.7731;-0.127;0.1955;-0.0493;-0.0173;-0.0019;-0.0027;404.0;-37.69;-39.36;-45.84;138.25;-1.26;-5.01;5.0;31.775;39.468952;-0.340972;69.4;NaN;;15.076;;0 / 19;4744;2021-10-20 21:02:57:151
-0.141;0.8591;9.672;0.8763;0.1101;9.7683;-0.0303;0.0882;0.0473;-0.0279;-0.0033;-0.0074;404.0;-37.69;-39.06;-45.41;138.66;-0.64;-5.13;5.0;31.775;39.468952;-0.340972;69.4;NaN;;15.076;;0 / 19;4764;2021-10-20 21:02:57:171
-0.2269;0.9431;9.825;0.9098;0.2442;9.7636;-0.0303;0.0882;0.0473;-0.039;-0.0077;-0.0107;404.0;-37.69;-39.06;-45.41;138.66;-0.64;-5.13;5.0;31.775;39.468952;-0.340972;69.4;NaN;;15.076;;0 / 19;4784;2021-10-20 21:02:57:191
-0.2269;0.9431;9.825;0.9098;0.2442;9.7636;0.0527;0.0533;-0.0746;-0.039;-0.0077;-0.0107;404.0;-37.91;-39.24;-45.41;138.66;-0.64;-5.13;5.0;31.775;39.468952;-0.340972;69.4;NaN;;15.076;;0 / 19;4804;2021-10-20 21:02:57:211
-0.1481;0.945;9.95;0.9242;0.1484;9.7636;0.0038;-0.0042;-0.141;-0.0432;-0.0129;-0.0139;404.0;-37.91;-39.24;-45.41;138.66;-0.64;-5.13;5.0;36.437;39.468952;-0.340972;69.4;NaN;;15.076;;0 / 19;4824;2021-10-20 21:02:57:231
-0.15;0.866;9.713;0.838;0.1532;9.7683;0.0038;-0.0042;-0.141;-0.0421;-0.0184;-0.012;404.0;-38.1;-39.49;-45.41;138.35;-0.9;-4.9;5.0;36.437;39.468952;-0.340972;69.4;NaN;;15.076;;0 / 19;4844;2021-10-20 21:02:57:251
-0.15;0.866;9.713;0.838;0.1532;9.7683;0.0038;-0.0042;-0.141;-0.0421;-0.0184;-0.012;404.0;-38.1;-39.49;-45.41;138.35;-0.9;-4.9;5.0;36.437;39.468952;-0.340972;69.4;NaN;;15.076;;0 / 19;4865;2021-10-20 21:02:57:272
-0.033;0.9041;9.603;0.929;0.0144;9.7636;-0.0062;0.043;0.1049;-0.0421;-0.0184;-0.012;404.0;-37.99;-39.71;-45.41;138.35;-0.9;-4.9;5.0;36.437;39.468952;-0.340972;69.4;NaN;;15.076;;0 / 19;4885;2021-10-20 21:02:57:292
-0.033;0.9041;9.603;0.929;0.0144;9.7636;-0.0062;0.043;0.1049;-0.0421;-0.0184;-0.012;404.0;-37.99;-39.71;-45.41;138.35;-0.9;-4.9;5.0;36.437;39.468952;-0.340972;69.4;NaN;;15.076;;0 / 19;4904;2021-10-20 21:02:57:311
-0.1241;0.9;9.696;0.8811;0.1245;9.7683;-0.0433;0.0453;0.0924;-0.0421;-0.0184;-0.012;404.0;-37.99;-40.01;-45.41;139.95;-0.08;-5.44;5.0;36.437;39.468952;-0.340972;69.4;NaN;;15.076;;0 / 19;4924;2021-10-20 21:02:57:331
-0.201;0.9551;9.7781;0.9529;0.1915;9.7588;0.0818;-0.088;-0.0564;-0.0421;-0.0184;-0.012;404.0;-37.99;-40.01;-45.41;139.95;-0.08;-5.44;5.0;36.437;39.468952;-0.340972;69.4;NaN;;15.076;;0 / 19;4945;2021-10-20 21:02:57:352
-0.201;0.9551;9.7781;0.9529;0.1915;9.7588;0.0818;-0.088;-0.0564;-0.0139;-0.0029;0.005;404.0;-37.91;-39.66;-45.24;139.95;-0.08;-5.44;5.0;36.437;39.468952;-0.340972;69.4;NaN;;15.076;;0 / 19;4965;2021-10-20 21:02:57:372
-0.1571;1.0601;9.687;1.0295;0.1389;9.754;0.0146;-0.1163;0.0663;-0.0067;-0.0026;0.0028;404.0;-37.91;-39.66;-45.24;139.95;-0.08;-5.44;5.0;36.437;39.468952;-0.340972;69.4;NaN;;15.076;;0 / 19;4985;2021-10-20 21:02:57:392
-0.023;1.115;9.5051;1.0295;0.1389;9.754;0.0146;-0.1163;0.0663;-0.0067;-0.0026;0.0028;404.0;-37.69;-39.49;-44.94;139.2;-0.81;-6.03;5.0;36.437;39.468952;-0.340972;69.4;NaN;;15.076;;0 / 19;5004;2021-10-20 21:02:57:411
-0.023;1.115;9.5051;1.1109;0.0;9.7444;-0.0804;-0.1957;0.1615;0.0121;-0.0014;0.0029;404.0;-37.69;-39.49;-44.94;139.2;-0.81;-6.03;5.0;36.437;39.468952;-0.340972;69.4;NaN;;15.076;;0 / 19;5024;2021-10-20 21:02:57:431
-0.026;1.0601;9.4541;0.9912;0.1101;9.754;-0.0662;-0.1153;0.3101;0.0121;-0.0014;0.0029;405.0;-37.69;-39.36;-45.11;139.2;-0.81;-6.03;5.0;36.437;39.468952;-0.340972;69.4;NaN;;15.076;;0 / 19;5045;2021-10-20 21:02:57:452
-0.177;0.837;9.833;0.9912;0.1101;9.754;-0.0662;-0.1153;0.3101;0.0374;7.0E-4;0.0226;405.0;-37.69;-39.36;-45.11;139.2;-0.81;-6.03;5.0;36.437;39.468952;-0.340972;69.4;NaN;;15.076;;0 / 19;5065;2021-10-20 21:02:57:472
-0.177;0.837;9.833;0.6608;0.158;9.7827;0.043;0.0833;0.0098;0.0403;0.0012;0.0263;405.0;-37.86;-39.24;-45.24;137.62;-0.92;-3.86;5.0;36.437;39.468952;-0.340972;69.4;NaN;;15.076;;0 / 19;5085;2021-10-20 21:02:57:492
-0.078;0.5501;10.2851;0.5028;0.0144;9.7923;-0.1064;0.4185;-0.5903;0.0403;0.0012;0.0263;405.0;-37.86;-39.24;-45.24;137.62;-0.92;-3.86;5.0;36.437;39.468952;-0.340972;69.4;NaN;;15.076;;0 / 19;5104;2021-10-20 21:02:57:511
-0.069;0.5501;10.2971;0.5028;0.0144;9.7923;-0.1064;0.4185;-0.5903;0.0127;-8.0E-4;0.0048;405.0;-38.16;-39.49;-45.19;137.62;-0.92;-3.86;5.0;36.437;39.468952;-0.340972;69.4;NaN;;15.076;;0 / 19;5125;2021-10-20 21:02:57:532
-0.15;0.6821;9.789;0.5842;0.1197;9.7875;0.0033;0.3076;-0.1815;-7.0E-4;-0.0016;-0.0016;405.0;-38.16;-39.49;-45.19;137.62;-0.92;-3.86;5.0;34.394;39.468952;-0.340972;69.4;NaN;;15.076;;0 / 19;5144;2021-10-20 21:02:57:551
-0.15;0.6821;9.789;0.9481;0.1963;9.7588;0.0175;0.0598;0.2137;-7.0E-4;-0.0016;-0.0016;405.0;-38.21;-39.66;-45.54;138.24;-0.7;-3.42;5.0;34.394;39.468952;-0.340972;69.4;NaN;;15.076;;0 / 19;5165;2021-10-20 21:02:57:572
-0.2891;0.995;9.438;0.9481;0.1963;9.7588;0.0175;0.0598;0.2137;-0.0286;-0.0038;-0.0137;405.0;-38.21;-39.66;-45.54;138.24;-0.7;-3.42;5.0;34.394;39.468952;-0.340972;69.4;NaN;;15.076;;0 / 19;5185;2021-10-20 21:02:57:592
-0.122;1.125;9.5501;1.1109;0.2682;9.7396;0.1815;-0.1228;0.3096;-0.0286;-0.0038;-0.0137;405.0;-38.16;-39.84;-45.19;138.24;-0.7;-3.42;5.0;34.394;39.468952;-0.340972;69.4;NaN;;15.076;;0 / 19;5204;2021-10-20 21:02:57:611
-0.122;1.125;9.5501;1.0391;0.1245;9.7492;0.1815;-0.1228;0.3096;-0.0465;-0.0048;-0.0285;405.0;-38.16;-39.84;-45.19;138.24;-0.7;-3.42;5.0;34.394;39.468952;-0.340972;69.4;NaN;;15.076;;0 / 19;5224;2021-10-20 21:02:57:631
-0.0859;0.9641;9.792;1.0391;0.1245;9.7492;-0.0085;-0.1018;0.0799;-0.0459;-0.0032;-0.0272;405.0;-37.99;-40.01;-45.11;140.02;-0.73;-6.08;5.0;34.394;39.468952;-0.340972;69.4;NaN;;15.076;;0 / 19;5244;2021-10-20 21:02:57:651
-0.0139;0.926;9.8921;0.9098;0.0;9.7636;-0.1038;-0.0217;-0.1502;-0.0459;-0.0032;-0.0272;405.0;-37.99;-40.01;-45.11;140.02;-0.73;-6.08;5.0;34.394;39.468952;-0.340972;69.4;NaN;;15.076;;0 / 19;5265;2021-10-20 21:02:57:672
-0.0139;0.926;9.8921;0.8811;0.0527;9.7683;-0.1038;-0.0217;-0.1502;-0.0318;-8.0E-4;-0.0148;405.0;-37.91;-39.84;-44.81;140.02;-0.73;-6.08;5.0;34.394;39.468952;-0.340972;69.4;NaN;;15.076;;0 / 19;5285;2021-10-20 21:02:57:692
-0.155;0.9161;9.761;0.8811;0.0527;9.7683;-0.0632;0.0017;-0.0409;-0.0318;-8.0E-4;-0.0148;405.0;-37.91;-39.84;-44.81;140.02;-0.73;-6.08;5.0;34.394;39.468952;-0.340972;69.4;NaN;;15.076;;0 / 19;5305;2021-10-20 21:02:57:712
-0.155;0.9161;9.761;0.9577;0.2729;9.7588;-0.0632;0.0017;-0.0409;-0.0126;0.0014;-0.0131;405.0;-37.99;-39.79;-44.21;139.07;-1.59;-5.6;5.0;34.394;39.468952;-0.340972;69.4;NaN;;15.076;;0 / 19;5325;2021-10-20 21:02:57:732
-0.275;1.05;9.6551;1.087;0.067;9.7444;0.1803;-0.084;0.0684;0.0048;0.0059;-0.0092;405.0;-37.99;-39.79;-44.21;139.07;-1.59;-5.6;5.0;34.394;39.468952;-0.340972;69.4;NaN;;15.076;;0 / 19;5345;2021-10-20 21:02:57:752
-0.083;1.148;9.677;1.087;0.067;9.7444;-0.04;-0.229;0.0952;0.0048;0.0059;-0.0092;405.0;-38.16;-39.84;-44.1;139.07;-1.59;-5.6;5.0;34.394;39.468952;-0.340972;69.4;NaN;;15.076;;0 / 19;5365;2021-10-20 21:02:57:772
-0.083;1.148;9.677;1.1349;0.2298;9.7396;-0.04;-0.229;0.0952;0.0199;0.0055;-7.0E-4;404.0;-38.16;-39.84;-44.1;139.07;-1.59;-5.6;5.0;34.394;39.468952;-0.340972;69.4;NaN;;15.076;;0 / 19;5385;2021-10-20 21:02:57:792
-0.222;1.1081;9.761;1.1349;0.2298;9.7396;0.1087;-0.2356;0.0537;0.0199;0.0055;-7.0E-4;404.0;-37.91;-39.66;-43.99;139.96;-1.34;-6.65;5.0;34.394;39.468952;-0.340972;69.4;NaN;;15.076;;0 / 19;5405;2021-10-20 21:02:57:812
-0.2719;1.031;9.5291;1.0534;0.2346;9.7492;0.1189;-0.0927;0.2288;0.0488;0.0088;0.0215;404.0;-37.91;-39.66;-43.99;139.96;-1.34;-6.65;5.0;34.394;39.468952;-0.340972;69.4;NaN;;15.076;;0 / 19;5424;2021-10-20 21:02:57:831
-0.126;1.034;9.459;1.0534;0.1149;9.7492;0.1189;-0.0927;0.2288;0.058;0.0187;0.034;404.0;-37.5;-39.66;-44.1;139.96;-1.34;-6.65;5.0;34.394;39.468952;-0.340972;69.4;NaN;;15.076;;0 / 19;5444;2021-10-20 21:02:57:851
-0.126;1.034;9.459;1.0534;0.1149;9.7492;-0.0203;-0.0677;0.2549;0.058;0.0187;0.034;404.0;-37.5;-39.66;-44.1;139.96;-1.34;-6.65;5.0;35.549;39.468952;-0.340972;69.4;NaN;;15.076;;0 / 19;5464;2021-10-20 21:02:57:871
-0.059;1.005;9.5741;0.9864;0.0814;9.7588;-0.1357;-0.0437;0.1436;0.0613;0.0216;0.0373;404.0;-37.56;-39.36;-44.34;139.15;-0.48;-5.77;5.0;35.549;39.468952;-0.340972;69.4;NaN;;15.076;;0 / 19;5484;2021-10-20 21:02:57:891
0.174;1.0601;9.842;1.063;-0.0814;9.7492;-0.1357;-0.0437;0.1436;0.0613;0.0216;0.0373;404.0;-37.56;-39.36;-44.34;139.15;-0.48;-5.77;5.0;35.549;39.468952;-0.340972;69.4;NaN;;15.076;;0 / 19;5504;2021-10-20 21:02:57:911
0.174;1.0601;9.842;1.063;-0.0814;9.7492;-0.2196;-0.1141;-0.13;0.0613;0.0216;0.0373;404.0;-37.56;-38.94;-44.29;139.15;-0.48;-5.77;5.0;35.549;39.468952;-0.340972;69.4;NaN;;15.076;;0 / 19;5525;2021-10-20 21:02:57:932
-0.098;0.969;9.5021;1.0199;0.1149;9.754;0.0222;0.0413;0.8079;0.0613;0.0216;0.0373;404.0;-37.56;-38.94;-44.29;139.15;-0.48;-5.77;5.0;35.549;39.468952;-0.340972;69.4;NaN;;15.076;;0 / 19;5545;2021-10-20 21:02:57:952
0.117;0.9431;9.024;0.9002;-0.0287;9.7636;0.0222;0.0413;0.8079;0.0613;0.0216;0.0373;404.0;-37.8;-39.11;-44.4;139.17;-0.67;-5.97;5.0;35.549;39.468952;-0.340972;69.4;NaN;;15.076;;0 / 19;5565;2021-10-20 21:02:57:972
-0.067;1.0001;9.27;0.9002;-0.0287;9.7636;-0.1107;-0.0107;0.5883;0.0613;0.0216;0.0373;404.0;-37.8;-39.11;-44.4;139.17;-0.67;-5.97;5.0;35.549;39.468952;-0.340972;69.4;NaN;;15.076;;0 / 19;5585;2021-10-20 21:02:57:992
-0.067;1.0001;9.27;0.7949;0.2825;9.7683;-0.1107;-0.0107;0.5883;0.0613;0.0216;0.0373;404.0;-38.4;-39.41;-44.59;139.17;-0.67;-5.97;5.0;35.549;39.468952;-0.340972;69.4;NaN;;15.076;;0 / 19;5604;2021-10-20 21:02:58:011
-0.1931;0.591;10.926;0.3496;-0.0479;9.8019;0.1666;0.2681;-0.4065;0.0326;-0.0231;0.0184;404.0;-38.4;-39.41;-44.59;139.17;-0.67;-5.97;5.0;35.549;39.468952;-0.340972;69.4;NaN;;15.076;;0 / 19;5624;2021-10-20 21:02:58:031
0.303;0.2771;11.3021;0.3496;-0.0479;9.8019;-0.3504;0.7411;-1.6454;-0.0329;-0.0437;-0.0297;404.0;-38.46;-39.84;-45.0;137.88;0.28;-2.04;5.0;35.549;39.468952;-0.340972;69.4;NaN;;15.076;;0 / 19;5644;2021-10-20 21:02:58:051
0.303;0.2771;11.3021;0.2729;-0.3687;9.7971;-0.3504;0.7411;-1.6454;-0.0329;-0.0437;-0.0297;404.0;-38.46;-39.84;-45.0;137.88;0.28;-2.04;5.0;35.549;39.468952;-0.340972;69.4;NaN;;15.076;;0 / 19;5664;2021-10-20 21:02:58:071
0.423;0.552;9.9911;0.68;-0.249;9.7827;-0.5179;0.6453;-0.8539;-0.0718;-0.0558;-0.0645;404.0;-38.76;-40.01;-45.79;137.88;0.28;-2.04;5.0;35.549;39.468952;-0.340972;69.4;NaN;;15.076;;0 / 19;5684;2021-10-20 21:02:58:091
-0.134;0.797;9.239;0.68;-0.249;9.7827;-0.0327;0.1495;0.4857;-0.0718;-0.0558;-0.0645;185.0;-38.76;-40.01;-45.79;137.88;0.28;-2.04;5.0;35.549;39.468952;-0.340972;69.4;NaN;;15.076;;0 / 19;5705;2021-10-20 21:02:58:112
-0.134;0.797;9.239;0.9577;0.2011;9.7588;-0.0327;0.1495;0.4857;-0.1295;-0.0679;-0.0989;185.0;-38.81;-40.26;-45.84;138.63;-1.17;-5.6;5.0;35.549;39.468952;-0.340972;69.4;NaN;;15.076;;0 / 19;5725;2021-10-20 21:02:58:132
-0.244;1.0121;9.155;1.0822;0.2442;9.7444;0.155;-0.0811;0.6381;-0.131;-0.0553;-0.0736;185.0;-38.81;-40.26;-45.84;138.63;-1.17;-5.6;5.0;35.549;39.468952;-0.340972;69.4;NaN;;15.076;;0 / 19;5745;2021-10-20 21:02:58:152
-0.22;0.995;9.323;1.0822;0.2442;9.7444;0.155;-0.0811;0.6381;-0.131;-0.0553;-0.0736;185.0;-38.81;-40.14;-45.84;138.63;-1.17;-5.6;5.0;35.549;39.468952;-0.340972;69.4;NaN;;15.076;;0 / 19;5765;2021-10-20 21:02:58:172
-0.22;0.995;9.323;0.9816;0.2155;9.754;0.173;-0.1293;0.4928;-0.1154;-0.0498;-0.0649;185.0;-38.81;-40.14;-45.84;138.63;-1.17;-5.6;5.0;36.21;39.468952;-0.340972;69.4;NaN;;15.076;;0 / 19;5785;2021-10-20 21:02:58:192
-0.3109;1.043;10.026;0.9768;0.34;9.754;0.0989;-0.0658;0.3174;-0.1154;-0.0498;-0.0649;185.0;-39.19;-40.01;-45.71;138.68;-1.26;-5.75;5.0;36.21;39.468952;-0.340972;69.4;NaN;;15.076;;0 / 19;5805;2021-10-20 21:02:58:212
-0.2509;0.725;10.0721;0.9768;0.34;9.754;0.0989;-0.0658;0.3174;-0.066;-0.0291;-0.0367;185.0;-39.19;-40.01;-45.71;138.68;-1.26;-5.75;5.0;36.21;39.468952;-0.340972;69.4;NaN;;15.076;;0 / 19;5825;2021-10-20 21:02:58:232
-0.2509;0.725;10.0721;0.7422;0.158;9.7779;0.1868;0.0775;-0.3347;-0.029;0.0011;-0.0016;185.0;-39.3;-40.26;-45.24;138.68;-1.26;-5.75;5.0;36.21;39.468952;-0.340972;69.4;NaN;;15.076;;0 / 19;5845;2021-10-20 21:02:58:252
0.035;0.629;9.789;0.589;-0.067;9.7875;-0.0744;0.1912;-0.0615;-0.029;0.0011;-0.0016;185.0;-39.3;-40.26;-45.24;138.68;-1.26;-5.75;5.0;36.21;39.468952;-0.340972;69.4;NaN;;15.076;;0 / 19;5864;2021-10-20 21:02:58:271
0.1481;0.624;9.7871;0.589;-0.067;9.7875;-0.0744;0.1912;-0.0615;-0.0168;0.0121;0.0116;185.0;-39.41;-40.44;-45.41;138.06;0.39;-3.44;5.0;36.21;39.468952;-0.340972;69.4;NaN;;15.076;;0 / 19;5885;2021-10-20 21:02:58:292
0.174;0.588;9.737;0.5411;-0.1197;9.7923;-0.1731;0.2031;0.0203;-0.0168;0.0121;0.0116;185.0;-39.41;-40.44;-45.41;138.06;0.39;-3.44;0.0;36.21;39.468952;-0.340972;69.4;NaN;;15.076;;0 / 19;5905;2021-10-20 21:02:58:312
0.174;0.588;9.737;0.5411;-0.1197;9.7923;-0.1731;0.2031;0.0203;-0.0115;0.0173;0.0186;185.0;-39.36;-40.61;-45.54;138.06;0.39;-3.44;0.0;36.21;39.468952;-0.340972;69.4;NaN;;15.076;;0 / 19;5924;2021-10-20 21:02:58:331
0.27;0.581;9.7151;0.5746;-0.1915;9.7875;-0.2596;0.3063;-0.0337;-0.0217;0.0019;0.0018;185.0;-39.36;-40.61;-45.54;138.06;0.39;-3.44;0.0;36.21;39.468952;-0.340972;69.4;NaN;;15.076;;0 / 19;5944;2021-10-20 21:02:58:351
0.246;0.485;9.7271;0.4836;-0.249;9.7923;-0.2593;0.3524;0.0623;-0.0217;0.0019;0.0018;185.0;-39.11;-40.99;-45.49;139.11;1.12;-3.36;0.0;36.21;39.468952;-0.340972;69.4;NaN;;15.076;;0 / 19;5965;2021-10-20 21:02:58:372
0.246;0.485;9.7271;0.4836;-0.249;9.7923;-0.2593;0.3524;0.0623;-0.0212;-0.0038;-0.0066;185.0;-39.11;-40.99;-45.49;139.11;1.12;-3.36;0.0;36.21;39.468952;-0.340972;69.4;NaN;;15.076;;0 / 19;5985;2021-10-20 21:02:58:392
0.213;0.672;9.888;0.6847;-0.1484;9.7827;-0.3126;0.2238;-0.0052;-0.0212;-0.0038;-0.0066;185.0;-39.0;-41.21;-45.49;139.11;1.12;-3.36;0.0;36.21;39.468952;-0.340972;69.4;NaN;;15.076;;0 / 19;6004;2021-10-20 21:02:58:411
-0.1691;0.7871;10.022;0.7183;0.1197;9.7779;-0.0773;0.0916;-0.1679;-0.049;-0.0232;-0.0521;185.0;-39.0;-41.21;-45.49;139.11;1.12;-3.36;0.0;36.21;39.468952;-0.340972;69.4;NaN;;15.076;;0 / 19;6025;2021-10-20 21:02:58:432
-0.186;0.809;9.897;0.8092;0.1484;9.7731;0.129;-0.0446;-0.2202;-0.0727;-0.052;-0.0987;176.0;-38.76;-41.29;-45.54;138.67;-0.7;-4.2;0.0;36.21;39.468952;-0.340972;69.4;NaN;;15.076;;0 / 19;6045;2021-10-20 21:02:58:452
-0.186;0.809;9.897;0.8092;0.1484;9.7731;0.129;-0.0446;-0.2202;-0.0727;-0.052;-0.0987;176.0;-38.76;-41.29;-45.54;138.67;-0.7;-4.2;0.0;36.21;39.468952;-0.340972;69.4;NaN;;15.076;;0 / 19;6065;2021-10-20 21:02:58:472
-0.057;0.737;9.809;0.723;0.0431;9.7827;0.0827;-0.0167;-0.0285;-0.0554;-0.041;-0.091;176.0;-39.11;-41.16;-45.6;138.67;-0.7;-4.2;0.0;32.471;39.468952;-0.340972;69.4;NaN;;15.076;;0 / 19;6084;2021-10-20 21:02:58:491
0.069;0.665;9.837;0.6512;-0.0958;9.7827;-0.0687;0.0451;-0.0269;-0.0554;-0.041;-0.091;176.0;-39.11;-41.16;-45.6;138.67;-0.7;-4.2;0.0;32.471;39.468952;-0.340972;69.4;NaN;;15.076;;0 / 19;6105;2021-10-20 21:02:58:512
0.069;0.665;9.837;0.6512;-0.0958;9.7827;-0.0687;0.0451;-0.0269;-0.0465;-0.0337;-0.0865;176.0;-39.0;-41.04;-45.54;139.15;0.56;-3.81;0.0;32.471;39.468952;-0.340972;69.4;NaN;;15.076;;0 / 19;6125;2021-10-20 21:02:58:532
0.059;0.71;9.77;0.6943;-0.0814;9.7827;-0.0917;0.0098;-0.04;-0.0465;-0.0337;-0.0865;176.0;-39.0;-41.04;-45.54;139.15;0.56;-3.81;0.0;32.471;39.468952;-0.340972;69.4;NaN;;15.076;;0 / 19;6145;2021-10-20 21:02:58:552
-0.0431;0.854;9.639;0.8571;0.067;9.7683;0.0646;-0.1358;0.1514;-0.0465;-0.0337;-0.0865;176.0;-38.81;-40.99;-45.41;139.15;0.56;-3.81;0.0;32.471;39.468952;-0.340972;69.4;NaN;;15.076;;0 / 19;6165;2021-10-20 21:02:58:572
-0.0431;0.854;9.639;0.8571;0.067;9.7683;0.0646;-0.1358;0.1514;-0.0465;-0.0337;-0.0865;176.0;-38.81;-40.99;-45.41;139.15;0.56;-3.81;0.0;32.471;39.468952;-0.340972;69.4;NaN;;15.076;;0 / 19;6185;2021-10-20 21:02:58:592
-0.1571;0.9191;9.701;0.9146;0.1772;9.7636;0.1474;-0.1894;0.1105;-0.0465;-0.0337;-0.0865;176.0;-38.89;-40.74;-45.0;139.2;-1.04;-5.35;0.0;32.471;39.468952;-0.340972;69.4;NaN;;15.076;;0 / 19;6205;2021-10-20 21:02:58:612
-0.16;0.8711;9.816;0.8715;0.1101;9.7683;0.1308;-0.1386;-0.0128;-0.0465;-0.0337;-0.0865;176.0;-38.89;-40.74;-45.0;139.2;-1.04;-5.35;0.0;32.471;39.468952;-0.340972;69.4;NaN;;15.076;;0 / 19;6224;2021-10-20 21:02:58:631
0.009;0.8681;9.789;0.8715;0.1101;9.7683;0.1308;-0.1386;-0.0128;-0.0465;-0.0337;-0.0865;176.0;-38.59;-41.16;-44.89;139.2;-1.04;-5.35;0.0;32.471;39.468952;-0.340972;69.4;NaN;;15.076;;0 / 19;6245;2021-10-20 21:02:58:652
0.009;0.8681;9.789;0.747;0.0527;9.7779;0.0427;-0.0142;-0.014;-0.0465;-0.0337;-0.0865;176.0;-38.59;-41.16;-44.89;139.2;-1.04;-5.35;0.0;32.471;39.468952;-0.340972;69.4;NaN;;15.076;;0 / 19;6265;2021-10-20 21:02:58:672
-0.0431;0.753;9.7781;0.747;0.0527;9.7779;0.0427;-0.0142;-0.014;-0.0465;-0.0337;-0.0865;176.0;-38.89;-41.21;-44.59;138.97;-0.31;-4.37;0.0;32.471;39.468952;-0.340972;69.4;NaN;;15.076;;0 / 19;6284;2021-10-20 21:02:58:691
-0.0431;0.753;9.7781;0.7183;0.0814;9.7779;0.0517;0.021;0.0399;-0.0465;-0.0337;-0.0865;176.0;-38.89;-41.21;-44.59;138.97;-0.31;-4.37;0.0;32.471;39.468952;-0.340972;69.4;NaN;;15.076;;0 / 19;6305;2021-10-20 21:02:58:712
-0.105;0.761;9.7061;0.8667;0.1245;9.7683;0.0939;-0.1008;0.0933;-0.0465;-0.0337;-0.0865;176.0;-39.11;-41.16;-44.34;138.97;-0.31;-4.37;0.0;32.471;39.468952;-0.340972;69.4;NaN;;15.076;;0 / 19;6325;2021-10-20 21:02:58:732
-0.107;0.909;9.77;0.8667;0.1245;9.7683;0.0939;-0.1008;0.0933;0.0326;0.0349;0.0198;176.0;-39.11;-41.16;-44.34;138.97;-0.31;-4.37;0.0;32.471;39.468952;-0.340972;69.4;NaN;;15.076;;0 / 19;6344;2021-10-20 21:02:58:751
0.0041;0.9761;9.651;0.9577;0.0431;9.7588;0.0737;-0.1761;0.011;0.0326;0.0349;0.0198;176.0;-39.11;-41.21;-44.21;139.76;-0.25;-5.6;0.0;32.471;39.468952;-0.340972;69.4;NaN;;15.076;;0 / 19;6365;2021-10-20 21:02:58:772
0.0041;0.9761;9.651;0.9577;0.0431;9.7588;0.0737;-0.1761;0.011;0.0316;0.0289;0.0169;95.0;-39.11;-41.21;-44.21;139.76;-0.25;-5.6;0.0;32.471;39.468952;-0.340972;69.4;NaN;;15.076;;0 / 19;6385;2021-10-20 21:02:58:792
0.102;0.959;9.629;0.9385;-0.0814;9.7636;-0.1263;-0.2044;0.1053;0.0316;0.0289;0.0169;95.0;-39.11;-40.99;-43.91;139.76;-0.25;-5.6;0.0;31.971;39.468952;-0.340972;69.4;NaN;;15.076;;0 / 19;6404;2021-10-20 21:02:58:811
0.026;0.9671;9.6701;0.9577;0.0144;9.7588;-0.0774;-0.1621;0.1313;0.0356;0.0168;0.0172;95.0;-39.11;-40.99;-43.91;139.76;-0.25;-5.6;0.0;31.971;39.468952;-0.340972;69.4;NaN;;15.076;;0 / 19;6425;2021-10-20 21:02:58:832
0.026;0.9671;9.6701;0.9577;0.0144;9.7588;-0.0774;-0.1621;0.1313;0.049;0.0132;0.0301;95.0;-39.0;-40.69;-43.69;139.86;-0.08;-5.6;0.0;31.971;39.468952;-0.340972;69.4;NaN;;15.076;;0 / 19;6445;2021-10-20 21:02:58:852
-0.201;0.8321;9.804;0.814;0.2155;9.7683;0.1112;-0.1253;0.0216;0.049;0.0132;0.0301;95.0;-39.0;-40.69;-43.69;139.86;-0.08;-5.6;0.0;31.971;39.468952;-0.340972;69.4;NaN;;15.076;;0 / 19;6465;2021-10-20 21:02:58:872
-0.1571;0.722;9.8801;0.6847;0.1341;9.7827;0.0812;0.0989;-0.1027;0.0532;0.0111;0.0346;95.0;-39.0;-40.86;-44.04;139.86;-0.08;-5.6;0.0;31.971;39.468952;-0.340972;69.4;NaN;;15.076;;0 / 19;6484;2021-10-20 21:02:58:891
-0.1571;0.722;9.8801;0.6847;0.1341;9.7827;0.0812;0.0989;-0.1027;0.0532;0.0111;0.0346;95.0;-39.0;-40.86;-44.04;139.86;-0.08;-5.6;0.0;31.971;39.468952;-0.340972;69.4;NaN;;15.076;;0 / 19;6504;2021-10-20 21:02:58:911
-0.05;0.7301;9.926;0.7135;0.0527;9.7827;0.0262;0.0929;-0.1306;0.0389;0.0048;0.0245;95.0;-39.0;-40.74;-43.91;138.78;-0.31;-4.17;0.0;31.971;39.468952;-0.340972;69.4;NaN;;15.076;;0 / 19;6524;2021-10-20 21:02:58:931
-0.069;0.8951;9.947;0.8859;0.0383;9.7683;-0.0016;-0.0467;-0.2404;0.0223;0.0039;0.0188;95.0;-39.0;-40.74;-43.91;138.78;-0.31;-4.17;0.0;31.971;39.468952;-0.340972;69.4;NaN;;15.076;;0 / 19;6545;2021-10-20 21:02:58:952
-0.069;0.8951;9.947;0.8859;0.0383;9.7683;-0.0016;-0.0467;-0.2404;0.0223;0.0039;0.0188;95.0;-38.76;-40.44;-43.8;138.78;-0.31;-4.17;0.0;31.971;39.468952;-0.340972;69.4;NaN;;15.076;;0 / 19;6565;2021-10-20 21:02:58:972
-0.2359;1.031;9.6431;1.0678;0.2059;9.7492;0.0928;-0.166;0.0045;0.0168;0.0069;0.0215;95.0;-38.76;-40.44;-43.8;138.78;-0.31;-4.17;0.0;31.971;39.468952;-0.340972;69.4;NaN;;15.076;;0 / 19;6585;2021-10-20 21:02:58:992
-0.162;1.007;9.4661;1.0678;0.2059;9.7492;0.0928;-0.166;0.0045;0.0168;0.0069;0.0215;95.0;-38.51;-40.69;-43.8;139.64;-1.2;-6.25;0.0;31.971;39.468952;-0.340972;69.4;NaN;;15.076;;0 / 19;6604;2021-10-20 21:02:59:011
-0.059;0.971;9.5531;1.0391;0.1389;9.7492;0.1037;-0.1744;0.3173;0.0125;0.0105;0.0274;95.0;-38.51;-40.69;-43.8;139.64;-1.2;-6.25;0.0;31.971;39.468952;-0.340972;69.4;NaN;;15.076;;0 / 19;6625;2021-10-20 21:02:59:032
-0.059;0.971;9.5531;0.972;0.1101;9.7588;0.0174;-0.0735;0.2214;0.0146;0.0149;0.0241;95.0;-38.59;-40.56;-43.2;139.64;-1.2;-6.25;0.0;31.971;39.468952;-0.340972;69.4;NaN;;15.076;;0 / 19;6645;2021-10-20 21:02:59:052
-0.098;0.9671;9.696;0.972;0.1101;9.7588;0.0174;-0.0735;0.2214;0.0146;0.0149;0.0241;95.0;-38.59;-40.56;-43.2;139.64;-1.2;-6.25;0.0;31.971;39.468952;-0.340972;69.4;NaN;;15.076;;0 / 19;6665;2021-10-20 21:02:59:072
-0.098;0.9671;9.696;0.9337;0.1772;9.7588;0.0282;-0.1113;0.0713;0.0155;0.016;0.0205;95.0;-38.7;-40.61;-43.44;139.14;-1.04;-5.47;0.0;31.971;39.468952;-0.340972;69.4;NaN;;15.076;;0 / 19;6685;2021-10-20 21:02:59:092
-0.21;0.935;9.909;0.9337;0.1772;9.7588;0.0282;-0.1113;0.0713;0.0155;0.016;0.0205;95.0;-38.7;-40.61;-43.44;139.14;-1.04;-5.47;0.0;31.971;39.468952;-0.340972;69.4;NaN;;15.076;;0 / 19;6705;2021-10-20 21:02:59:112
-0.059;0.921;9.888;0.9194;0.0814;9.7636;0.0613;-0.0735;-0.1884;0.032;0.0245;0.0283;97.0;-38.89;-40.91;-43.2;139.14;-1.04;-5.47;0.0;37.525;39.468952;-0.340972;69.4;NaN;;15.076;;0 / 19;6725;2021-10-20 21:02:59:132
-0.059;0.921;9.888;0.8715;0.0958;9.7683;0.0402;-0.0042;-0.0128;0.0371;0.0204;0.0276;97.0;-38.89;-40.91;-43.2;139.14;-1.04;-5.47;0.0;37.525;39.468952;-0.340972;69.4;NaN;;15.076;;0 / 19;6745;2021-10-20 21:02:59:152
-0.081;0.923;9.773;0.8715;0.0958;9.7683;0.0402;-0.0042;-0.0128;0.0371;0.0204;0.0276;97.0;-38.76;-40.86;-43.31;139.18;-0.56;-5.1;0.0;37.525;39.468952;-0.340972;69.4;NaN;;15.076;;0 / 19;6765;2021-10-20 21:02:59:172
-0.27;0.9041;9.6671;0.9098;0.2634;9.7588;-0.0173;-0.0253;0.0547;0.0311;0.0175;0.0223;97.0;-38.76;-40.86;-43.31;139.18;-0.56;-5.1;0.0;37.525;39.468952;-0.340972;69.4;NaN;;15.076;;0 / 19;6785;2021-10-20 21:02:59:192
-0.093;1.005;9.7871;0.9912;0.0814;9.754;-0.0088;-0.0977;-0.0279;0.0311;0.0175;0.0223;97.0;-38.59;-40.91;-43.74;139.18;-0.56;-5.1;0.0;37.525;39.468952;-0.340972;69.4;NaN;;15.076;;0 / 19;6804;2021-10-20 21:02:59:211
-0.093;1.005;9.7871;0.9625;0.1628;9.7588;-0.0088;-0.0977;-0.0279;0.0311;0.0175;0.0223;97.0;-38.59;-40.91;-43.74;139.18;-0.56;-5.1;0.0;37.525;39.468952;-0.340972;69.4;NaN;;15.076;;0 / 19;6824;2021-10-20 21:02:59:231
-0.22;0.974;9.768;0.9625;0.1628;9.7588;0.0707;-0.0666;-0.0555;0.0311;0.0175;0.0223;97.0;-38.7;-40.91;-43.39;139.3;-0.95;-5.63;0.0;37.525;39.468952;-0.340972;69.4;NaN;;15.076;;0 / 19;6845;2021-10-20 21:02:59:252
-0.0619;0.902;9.677;0.9242;0.0575;9.7636;-0.0421;0.0215;0.1073;0.0311;0.0175;0.0223;97.0;-38.7;-40.91;-43.39;139.3;-0.95;-5.63;0.0;37.525;39.468952;-0.340972;69.4;NaN;;15.076;;0 / 19;6865;2021-10-20 21:02:59:272
-0.0619;0.902;9.677;0.9242;0.0575;9.7636;-0.0421;0.0215;0.1073;0.0173;0.0103;-0.001;97.0;-38.7;-40.86;-43.61;139.3;-0.95;-5.63;0.0;37.525;39.468952;-0.340972;69.4;NaN;;15.076;;0 / 19;6884;2021-10-20 21:02:59:291
-0.093;0.8801;9.818;0.8523;0.067;9.7683;-0.0847;0.0241;0.0253;0.0173;0.0103;-0.001;97.0;-38.7;-40.86;-43.61;139.3;-0.95;-5.63;0.0;37.525;39.468952;-0.340972;69.4;NaN;;15.076;;0 / 19;6905;2021-10-20 21:02:59:312
-0.117;0.935;9.9;0.9433;0.1341;9.7588;0.035;-0.0403;-0.0976;0.0105;0.0074;-0.0019;97.0;-38.59;-40.91;-43.61;139.27;-0.39;-4.99;0.0;37.525;39.468952;-0.340972;69.4;NaN;;15.076;;0 / 19;6925;2021-10-20 21:02:59:332
-0.203;0.983;9.708;0.9864;0.1915;9.754;0.1017;-0.066;0.0248;0.0105;0.0074;-0.0019;97.0;-38.59;-40.91;-43.61;139.27;-0.39;-4.99;0.0;37.525;39.468952;-0.340972;69.4;NaN;;15.076;;0 / 19;6945;2021-10-20 21:02:59:352
-0.203;0.983;9.708;0.9864;0.1915;9.754;0.1017;-0.066;0.0248;0.0105;0.0074;-0.0019;97.0;-38.29;-40.91;-43.01;139.27;-0.39;-4.99;0.0;37.525;39.468952;-0.340972;69.4;NaN;;15.076;;0 / 19;6965;2021-10-20 21:02:59:372
-0.138;1.005;9.6221;0.9912;0.1532;9.754;0.0322;-0.0781;0.1064;0.0105;0.0074;-0.0019;97.0;-38.29;-40.91;-43.01;139.27;-0.39;-4.99;0.0;37.525;39.468952;-0.340972;69.4;NaN;;15.076;;0 / 19;6985;2021-10-20 21:02:59:392
-0.122;0.9671;9.7151;0.9864;0.1245;9.7588;0.0159;-0.0208;0.0788;0.0073;0.0061;-0.0049;97.0;-38.1;-40.91;-43.14;140.28;-0.9;-5.8;0.0;37.525;39.468952;-0.340972;69.4;NaN;;15.076;;0 / 19;7005;2021-10-20 21:02:59:412
-0.122;0.9671;9.7151;0.9864;0.1245;9.7588;0.0159;-0.0208;0.0788;0.0073;0.0061;-0.0049;97.0;-38.1;-40.91;-43.14;140.28;-0.9;-5.8;0.0;45.402;39.468952;-0.340972;69.4;NaN;;15.076;;0 / 19;7025;2021-10-20 21:02:59:432
-0.081;0.921;9.842;0.9481;0.067;9.7588;-0.0126;-0.0194;-0.0166;0.0084;0.0065;-0.0151;201.0;-38.16;-40.86;-43.01;140.28;-0.9;-5.8;0.0;45.402;39.468952;-0.340972;69.4;NaN;;15.076;;0 / 19;7045;2021-10-20 21:02:59:452
-0.143;0.969;9.854;0.9337;0.1341;9.7636;0.0113;-0.0426;-0.0579;0.0084;0.0065;-0.0151;201.0;-38.16;-40.86;-43.01;140.28;-0.9;-5.8;0.0;45.402;39.468952;-0.340972;69.4;NaN;;15.076;;0 / 19;7064;2021-10-20 21:02:59:471
-0.095;0.962;9.6821;0.9337;0.1341;9.7636;0.0113;-0.0426;-0.0579;0.0127;0.0078;-0.0137;201.0;-38.46;-40.31;-43.2;139.4;-0.78;-5.46;0.0;45.402;39.468952;-0.340972;69.4;NaN;;15.076;;0 / 19;7084;2021-10-20 21:02:59:491
-0.095;0.962;9.6821;0.972;0.1245;9.7588;-0.004;-0.0123;0.0099;0.0127;0.0078;-0.0137;201.0;-38.46;-40.31;-43.2;139.4;-0.78;-5.46;0.0;45.402;39.468952;-0.340972;69.4;NaN;;15.076;;0 / 19;7104;2021-10-20 21:02:59:511
-0.1309;1.05;9.605;1.0056;0.1772;9.754;0.034;-0.0602;0.1727;0.0172;0.007;-0.007;201.0;-38.4;-40.26;-43.69;139.4;-0.78;-5.46;0.0;45.402;39.468952;-0.340972;69.4;NaN;;15.076;;0 / 19;7124;2021-10-20 21:02:59:531
-0.198;0.983;9.627;1.0056;0.1772;9.754;0.034;-0.0602;0.1727;0.0168;0.0067;-4.0E-4;201.0;-38.4;-40.26;-43.69;139.4;-0.78;-5.46;0.0;45.402;39.468952;-0.340972;69.4;NaN;;15.076;;0 / 19;7144;2021-10-20 21:02:59:551
-0.198;0.983;9.627;0.9529;0.1484;9.7588;0.0601;-0.0571;0.1587;0.0168;0.0067;-4.0E-4;201.0;-38.7;-40.31;-43.69;138.67;-0.87;-5.58;0.0;45.402;39.468952;-0.340972;69.4;NaN;;15.076;;0 / 19;7164;2021-10-20 21:02:59:571
-0.138;0.986;9.852;0.9433;0.1053;9.7636;0.0601;-0.0571;0.1587;0.0171;0.0077;0.0166;201.0;-38.7;-40.31;-43.69;138.67;-0.87;-5.58;0.0;45.402;39.468952;-0.340972;69.4;NaN;;15.076;;0 / 19;7184;2021-10-20 21:02:59:591
-0.119;0.959;9.821;0.9433;0.1053;9.7636;-0.0104;-0.0096;-0.1007;0.0155;0.0084;0.0265;201.0;-38.7;-40.61;-43.5;138.67;-0.87;-5.58;0.0;45.402;39.468952;-0.340972;69.4;NaN;;15.076;;0 / 19;7204;2021-10-20 21:02:59:611
-0.119;0.959;9.821;0.9768;0.0814;9.7588;-0.0534;-0.0037;-0.0196;0.0155;0.0084;0.0265;201.0;-38.7;-40.61;-43.5;138.67;-0.87;-5.58;0.0;45.402;39.468952;-0.340972;69.4;NaN;;15.076;;0 / 19;7224;2021-10-20 21:02:59:631
-0.0431;0.945;9.734;0.9481;0.0814;9.7588;-0.0534;-0.0037;-0.0196;0.0128;0.0073;0.0292;201.0;-38.81;-40.91;-43.44;139.63;-0.48;-5.72;0.0;45.402;39.468952;-0.340972;69.4;NaN;;15.076;;0 / 19;7244;2021-10-20 21:02:59:651
-0.134;1.005;9.665;0.9481;0.0814;9.7588;-0.0407;-0.0011;0.0346;0.0128;0.0073;0.0292;201.0;-38.81;-40.91;-43.44;139.63;-0.48;-5.72;0.0;45.402;39.468952;-0.340972;69.4;NaN;;15.076;;0 / 19;7264;2021-10-20 21:02:59:671
-0.186;1.019;9.6671;1.0534;0.2059;9.7492;0.0806;-0.0375;0.1567;0.0117;0.0065;0.0296;201.0;-39.0;-40.74;-42.9;139.63;-0.48;-5.72;0.0;45.402;39.468952;-0.340972;69.4;NaN;;15.076;;0 / 19;7284;2021-10-20 21:02:59:691
-0.186;1.019;9.6671;1.0487;0.1245;9.7492;0.0806;-0.0375;0.1567;0.0098;0.0062;0.0341;201.0;-39.0;-40.74;-42.9;139.63;-0.48;-5.72;0.0;45.402;39.468952;-0.340972;69.4;NaN;;15.076;;0 / 19;7304;2021-10-20 21:02:59:711
-0.1669;1.0361;9.7991;1.0487;0.1245;9.7492;0.0392;-0.0627;0.0339;0.0098;0.0062;0.0341;201.0;-38.89;-40.69;-42.9;139.77;-0.73;-6.14;0.0;45.402;39.468952;-0.340972;69.4;NaN;;15.076;;0 / 19;7324;2021-10-20 21:02:59:731
-0.162;0.969;9.804;0.9912;0.1915;9.754;0.0656;-0.0314;-0.0482;0.0103;0.005;0.0285;201.0;-38.89;-40.69;-42.9;139.77;-0.73;-6.14;0.0;43.094;39.468952;-0.340972;69.4;NaN;;15.076;;0 / 19;7344;2021-10-20 21:02:59:751
-0.162;0.969;9.804;0.9673;0.067;9.7588;0.0656;-0.0314;-0.0482;0.0103;0.005;0.0285;201.0;-38.7;-40.44;-42.84;139.77;-0.73;-6.14;0.0;43.094;39.468952;-0.340972;69.4;NaN;;15.076;;0 / 19;7364;2021-10-20 21:02:59:771
-0.0641;0.9761;9.77;0.9673;0.067;9.7588;-0.0166;0.0251;-0.0484;0.0105;0.0048;0.0252;183.0;-38.7;-40.44;-42.84;139.77;-0.73;-6.14;0.0;43.094;39.468952;-0.340972;69.4;NaN;;15.076;;0 / 19;7385;2021-10-20 21:02:59:792
-0.105;1.0001;9.72;0.996;0.0958;9.754;-0.0175;0.0025;0.0192;0.0118;0.0045;0.0205;183.0;-38.51;-40.69;-42.6;139.66;-0.56;-5.83;0.0;43.094;39.468952;-0.340972;69.4;NaN;;15.076;;0 / 19;7405;2021-10-20 21:02:59:812
-0.15;1.007;9.696;1.0391;0.1245;9.7492;-0.0175;0.0025;0.0192;0.0118;0.0045;0.0205;183.0;-38.51;-40.69;-42.6;139.66;-0.56;-5.83;0.0;43.094;39.468952;-0.340972;69.4;NaN;;15.076;;0 / 19;7425;2021-10-20 21:02:59:832
-0.15;1.007;9.696;1.0391;0.1245;9.7492;0.0358;-0.0736;0.0323;0.0118;0.0045;0.0205;183.0;-38.51;-40.74;-43.2;139.66;-0.56;-5.83;0.0;43.094;39.468952;-0.340972;69.4;NaN;;15.076;;0 / 19;7445;2021-10-20 21:02:59:852
-0.213;1.0241;9.7271;1.063;0.1915;9.7492;0.0358;-0.0736;0.0323;0.0118;0.0045;0.0205;183.0;-38.51;-40.74;-43.2;139.66;-0.56;-5.83;0.0;43.094;39.468952;-0.340972;69.4;NaN;;15.076;;0 / 19;7464;2021-10-20 21:02:59:871
-0.213;1.0241;9.7271;1.063;0.1915;9.7492;0.076;-0.0436;-0.0089;0.0118;0.0045;0.0205;183.0;-38.4;-40.61;-43.2;140.43;-1.12;-6.22;0.0;43.094;39.468952;-0.340972;69.4;NaN;;15.076;;0 / 19;7484;2021-10-20 21:02:59:891
-0.134;1.0481;9.749;1.0343;0.1341;9.7492;-0.035;-0.052;-0.023;0.0118;0.0045;0.0205;183.0;-38.4;-40.61;-43.2;140.43;-1.12;-6.22;0.0;43.094;39.468952;-0.340972;69.4;NaN;;15.076;;0 / 19;7505;2021-10-20 21:02:59:912
-0.138;0.957;9.672;0.9864;0.1389;9.7588;-0.035;-0.052;-0.023;0.0118;0.0045;0.0205;183.0;-38.16;-40.44;-43.31;140.43;-1.12;-6.22;0.0;43.094;39.468952;-0.340972;69.4;NaN;;15.076;;0 / 19;7525;2021-10-20 21:02:59:932
-0.067;0.974;9.6791;0.9864;0.1389;9.7588;-0.0367;0.0213;0.0718;0.0118;0.0045;0.0205;183.0;-38.16;-40.44;-43.31;140.43;-1.12;-6.22;0.0;43.094;39.468952;-0.340972;69.4;NaN;;15.076;;0 / 19;7545;2021-10-20 21:02:59:952
-0.067;0.974;9.6791;0.996;0.1245;9.754;-0.0367;0.0213;0.0718;0.0118;0.0045;0.0205;183.0;-38.1;-40.31;-43.69;139.76;-0.73;-5.83;0.0;43.094;39.468952;-0.340972;69.4;NaN;;15.076;;0 / 19;7565;2021-10-20 21:02:59:972
-0.198;1.026;9.746;1.0343;0.2059;9.7492;0.017;-0.0307;0.017;0.0131;0.0034;-0.0091;183.0;-38.1;-40.31;-43.69;139.76;-0.73;-5.83;0.0;43.094;39.468952;-0.340972;69.4;NaN;;15.076;;0 / 19;7584;2021-10-20 21:02:59:991
-0.189;1.046;9.7781;1.0343;0.2059;9.7492;0.0552;-0.0669;0.0165;0.0116;0.007;-0.0067;183.0;-38.16;-40.26;-43.44;139.76;-0.73;-5.83;0.0;43.094;39.468952;-0.340972;69.4;NaN;;15.076;;0 / 19;7604;2021-10-20 21:03:00:011
-0.189;1.046;9.7781;1.0487;0.1101;9.7492;0.0552;-0.0669;0.0165;0.0116;0.007;-0.0067;183.0;-38.16;-40.26;-43.44;139.76;-0.73;-5.83;0.0;43.094;39.468952;-0.340972;69.4;NaN;;15.076;;0 / 19;7625;2021-10-20 21:03:00:032
-0.095;0.995;9.6911;1.0151;0.0527;9.754;-0.0687;-0.024;0.0027;0.0109;0.0059;-0.0049;183.0;-38.16;-40.56;-43.14;140.65;-0.64;-6.14;0.0;43.094;39.468952;-0.340972;69.4;NaN;;15.076;;0 / 19;7645;2021-10-20 21:03:00:052
-0.1;1.041;9.696;1.0151;0.0527;9.754;-0.0687;-0.024;0.0027;0.0109;0.0059;-0.0049;183.0;-38.16;-40.56;-43.14;140.65;-0.64;-6.14;0.0;43.094;39.468952;-0.340972;69.4;NaN;;15.076;;0 / 19;7665;2021-10-20 21:03:00:072
-0.222;1.005;9.8921;1.0295;0.2155;9.7492;-0.0571;-0.0066;0.0431;0.0103;0.0052;-0.0032;183.0;-38.46;-40.69;-43.31;140.65;-0.64;-6.14;0.0;45.476;39.468952;-0.340972;69.4;NaN;;15.076;;0 / 19;7685;2021-10-20 21:03:00:092
-0.222;1.005;9.8921;1.0439;0.1915;9.7492;0.0097;-0.058;-0.1071;0.008;0.003;-7.0E-4;215.0;-38.46;-40.69;-43.31;140.65;-0.64;-6.14;0.0;45.476;39.468952;-0.340972;69.4;NaN;;15.076;;0 / 19;7705;2021-10-20 21:03:00:112
-0.186;1.022;9.7991;1.0439;0.1915;9.7492;0.0097;-0.058;-0.1071;0.008;0.003;-7.0E-4;215.0;-38.29;-40.86;-42.84;140.36;-1.12;-6.11;0.0;45.476;39.468952;-0.340972;69.4;NaN;;15.076;;0 / 19;7725;2021-10-20 21:03:00:132
-0.119;1.034;9.71;1.0391;0.1484;9.7492;0.05;-0.0428;-0.0119;0.0083;0.0025;-0.0019;215.0;-38.29;-40.86;-42.84;140.36;-1.12;-6.11;0.0;45.476;39.468952;-0.340972;69.4;NaN;;15.076;;0 / 19;7745;2021-10-20 21:03:00:152
-0.119;1.034;9.71;1.0343;0.067;9.754;0.05;-0.0428;-0.0119;0.0083;0.0025;-0.0019;215.0;-38.4;-41.04;-43.01;140.36;-1.12;-6.11;0.0;45.476;39.468952;-0.340972;69.4;NaN;;15.076;;0 / 19;7764;2021-10-20 21:03:00:171
-0.095;1.034;9.6701;1.0343;0.067;9.754;-0.0314;-0.0122;0.0967;0.0085;-0.0034;-0.0069;215.0;-38.4;-41.04;-43.01;140.36;-1.12;-6.11;0.0;45.476;39.468952;-0.340972;69.4;NaN;;15.076;;0 / 19;7784;2021-10-20 21:03:00:191
-0.177;1.0841;9.773;1.0534;0.1915;9.7492;0.0514;-0.0363;0.0419;0.0083;-0.0022;-0.0073;215.0;-38.21;-41.21;-43.31;140.4;-1.12;-6.17;0.0;45.476;39.468952;-0.340972;69.4;NaN;;15.076;;0 / 19;7804;2021-10-20 21:03:00:211
-0.177;1.0841;9.773;1.0487;0.1867;9.7492;0.0514;-0.0363;0.0419;0.0083;-0.0022;-0.0073;215.0;-38.21;-41.21;-43.31;140.4;-1.12;-6.17;0.0;45.476;39.468952;-0.340972;69.4;NaN;;15.076;;0 / 19;7824;2021-10-20 21:03:00:231
-0.179;1.046;9.825;1.0487;0.1867;9.7492;0.0514;-0.0481;-0.0808;0.0096;-0.0014;-0.0132;215.0;-37.99;-41.29;-43.2;140.4;-1.12;-6.17;0.0;45.476;39.468952;-0.340972;69.4;NaN;;15.076;;0 / 19;7844;2021-10-20 21:03:00:251
-0.136;1.0361;9.7631;1.0343;0.1245;9.754;-0.017;-0.0037;0.0141;0.0096;-0.0014;-0.0132;215.0;-37.99;-41.29;-43.2;140.4;-1.12;-6.17;0.0;45.476;39.468952;-0.340972;69.4;NaN;;15.076;;0 / 19;7864;2021-10-20 21:03:00:271
-0.136;1.0361;9.7631;1.0391;0.1484;9.7492;-0.017;-0.0037;0.0141;0.0091;-0.0022;-0.0293;215.0;-37.91;-41.29;-43.61;140.62;-0.73;-6.05;0.0;45.476;39.468952;-0.340972;69.4;NaN;;15.076;;0 / 19;7884;2021-10-20 21:03:00:291
-0.1721;1.055;9.713;1.0439;0.1532;9.7492;0.0237;-0.0158;0.0548;0.0074;-0.0022;-0.0331;215.0;-37.91;-41.29;-43.61;140.62;-0.73;-6.05;0.0;45.476;39.468952;-0.340972;69.4;NaN;;15.076;;0 / 19;7905;2021-10-20 21:03:00:312
-0.102;1.0691;9.699;1.0439;0.1532;9.7492;-0.0178;-0.0539;0.0409;0.0074;-0.0022;-0.0331;215.0;-37.61;-41.51;-43.39;140.62;-0.73;-6.05;0.0;45.476;39.468952;-0.340972;69.4;NaN;;15.076;;0 / 19;7924;2021-10-20 21:03:00:331
-0.102;1.0691;9.699;1.0439;0.0958;9.7492;-0.0178;-0.0539;0.0409;0.0074;-0.0018;-0.0349;215.0;-37.61;-41.51;-43.39;140.62;-0.73;-6.05;0.0;45.476;39.468952;-0.340972;69.4;NaN;;15.076;;0 / 19;7944;2021-10-20 21:03:00:351
-0.198;1.053;9.7181;1.0439;0.0958;9.7492;-0.0455;-0.0117;0.0816;0.0074;-0.0018;-0.0349;215.0;-37.69;-41.04;-43.2;140.68;-0.56;-6.11;0.0;45.476;39.468952;-0.340972;69.4;NaN;;15.076;;0 / 19;7965;2021-10-20 21:03:00:372
-0.21;1.022;9.7751;1.087;0.1915;9.7444;0.0355;0.005;-0.0277;0.0087;-0.0018;-0.0367;215.0;-37.69;-41.04;-43.2;140.68;-0.56;-6.11;0.0;45.476;39.468952;-0.340972;69.4;NaN;;15.076;;0 / 19;7985;2021-10-20 21:03:00:392
-0.15;1.062;9.744;1.0582;0.1484;9.7492;0.0355;0.005;-0.0277;0.0088;-0.0026;-0.0385;215.0;-37.61;-41.16;-43.14;140.68;-0.56;-6.11;0.0;41.855;39.468952;-0.340972;69.4;NaN;;15.076;;0 / 19;8005;2021-10-20 21:03:00:412
-0.15;1.062;9.744;1.0582;0.1484;9.7492;-0.1012;0.0081;-0.2051;0.0088;-0.0026;-0.0385;215.0;-37.61;-41.16;-43.14;140.68;-0.56;-6.11;0.0;41.855;39.468952;-0.340972;69.4;NaN;;15.076;;0 / 19;8025;2021-10-20 21:03:00:432
-0.138;1.074;9.426;1.1253;0.1389;9.7396;-0.1012;0.0081;-0.2051;0.0081;-0.003;-0.0385;263.0;-37.99;-41.04;-42.6;140.87;-0.81;-6.59;0.0;41.855;39.468952;-0.340972;69.4;NaN;;15.076;;0 / 19;8045;2021-10-20 21:03:00:452
-0.1309;1.1561;9.608;1.2163;0.0287;9.73;-0.0195;-0.0176;0.2851;0.0081;-0.003;-0.0385;263.0;-37.99;-41.04;-42.6;140.87;-0.81;-6.59;0.0;41.855;39.468952;-0.340972;69.4;NaN;;15.076;;0 / 19;8065;2021-10-20 21:03:00:472
-0.1309;1.1561;9.608;1.1013;0.2586;9.7396;0.131;1.0E-4;0.0123;0.0085;-0.0033;-0.0353;263.0;-38.4;-40.69;-42.6;140.87;-0.81;-6.59;0.0;41.855;39.468952;-0.340972;69.4;NaN;;15.076;;0 / 19;8085;2021-10-20 21:03:00:492
-0.2081;1.127;9.7511;1.1013;0.2586;9.7396;0.131;1.0E-4;0.0123;0.0124;-0.001;-0.0067;263.0;-38.4;-40.69;-42.6;140.87;-0.81;-6.59;0.0;41.855;39.468952;-0.340972;69.4;NaN;;15.076;;0 / 19;8105;2021-10-20 21:03:00:512
-0.2321;1.065;9.701;1.0726;0.249;9.7444;0.0902;-0.1201;-0.0425;0.0124;-0.001;-0.0067;263.0;-38.1;-40.86;-42.71;140.28;-1.45;-6.28;0.0;41.855;39.468952;-0.340972;69.4;NaN;;15.076;;0 / 19;8124;2021-10-20 21:03:00:531
-0.0881;1.031;9.7391;1.0487;0.0814;9.7492;-0.0465;-0.0197;-0.0566;0.0124;-0.001;-0.0067;263.0;-38.1;-40.86;-42.71;140.28;-1.45;-6.28;0.0;41.855;39.468952;-0.340972;69.4;NaN;;15.076;;0 / 19;8144;2021-10-20 21:03:00:551
-0.0881;1.031;9.7391;1.0487;0.0814;9.7492;-0.0465;-0.0197;-0.0566;0.0124;-0.001;-0.0067;263.0;-38.16;-40.56;-42.84;140.28;-1.45;-6.28;0.0;41.855;39.468952;-0.340972;69.4;NaN;;15.076;;0 / 19;8164;2021-10-20 21:03:00:571
-0.205;1.091;9.7181;1.063;0.1484;9.7492;-0.0468;0.0102;-0.016;0.0133;0.0026;0.0125;263.0;-38.16;-40.56;-42.84;140.28;-1.45;-6.28;0.0;41.855;39.468952;-0.340972;69.4;NaN;;15.076;;0 / 19;8185;2021-10-20 21:03:00:592
-0.0881;1.074;9.789;1.087;0.1101;9.7444;-0.0342;-0.0387;-0.0303;0.0143;0.0065;0.0267;263.0;-37.8;-40.56;-43.14;140.81;-0.64;-6.36;0.0;41.855;39.468952;-0.340972;69.4;NaN;;15.076;;0 / 19;8205;2021-10-20 21:03:00:612
-0.0881;1.074;9.789;1.0774;0.2203;9.7444;-0.0342;-0.0387;-0.0303;0.0143;0.0065;0.0267;263.0;-37.8;-40.56;-43.14;140.81;-0.64;-6.36;0.0;41.855;39.468952;-0.340972;69.4;NaN;;15.076;;0 / 19;8224;2021-10-20 21:03:00:631
-0.196;1.103;9.761;1.0774;0.2203;9.7444;0.0187;-0.0227;0.0784;0.0122;0.011;0.03;263.0;-37.61;-40.61;-43.2;140.81;-0.64;-6.36;0.0;41.855;39.468952;-0.340972;69.4;NaN;;15.076;;0 / 19;8244;2021-10-20 21:03:00:651
0.6911;1.694;10.577;1.7047;-0.9768;9.6055;-1.2075;-0.869;-1.5982;0.0122;0.011;0.03;263.0;-37.61;-40.61;-43.2;140.81;-0.64;-6.36;0.0;41.855;39.468952;-0.340972;69.4;NaN;;15.076;;0 / 19;8265;2021-10-20 21:03:00:672
0.6911;1.694;10.577;0.34;0.5986;9.7827;-1.2075;-0.869;-1.5982;0.0348;-0.0056;0.0346;263.0;-37.69;-40.56;-43.14;146.79;5.72;-10.06;0.0;41.855;39.468952;-0.340972;69.4;NaN;;15.076;;0 / 19;8285;2021-10-20 21:03:00:692
-0.588;0.4901;11.8481;0.34;0.5986;9.7827;0.7562;0.5664;-1.9256;0.0169;-0.0115;0.0217;263.0;-37.69;-40.56;-43.14;146.79;5.72;-10.06;0.0;34.899;39.468952;-0.340972;69.4;NaN;;15.076;;0 / 19;8305;2021-10-20 21:03:00:712