sep=;
ACCELEROMETER X (m/s²);ACCELEROMETER Y (m/s²);ACCELEROMETER Z (m/s²);GRAVITY X (m/s²);GRAVITY Y (m/s²);GRAVITY Z (m/s²);LINEAR ACCELERATION X (m/s²);LINEAR ACCELERATION Y (m/s²);LINEAR ACCELERATION Z (m/s²);GYROSCOPE X (rad/s);GYROSCOPE Y (rad/s);GYROSCOPE Z (rad/s);LIGHT (lux);MAGNETIC FIELD X (μT);MAGNETIC FIELD Y (μT);MAGNETIC FIELD Z (μT);ORIENTATION Z (azimuth °);ORIENTATION X (pitch °);ORIENTATION Y (roll °);PROXIMITY (m);SOUND LEVEL (dB);LOCATION Latitude : ;LOCATION Longitude : ;LOCATION Altitude ( m);LOCATION Altitude-google ( m);LOCATION Speed ( Kmh);LOCATION Accuracy ( m);LOCATION ORIENTATION (°);Satellites in range;Time since start in ms ;YYYY-MO-DD HH-MI-SS_SSS
4.83;2.07;4.145;1.494;-5.8802;7.7045;-1.404;-0.276;4.4344;0.181;-0.6648;-0.2469;583.0;-0.3;-29.21;-33.66;188.52;36.84;-10.97;5.0;46.243;39.469143;-0.342003;-45.0;NaN;6.89;5.0;237.35;11 / 34;17;2021-10-20 19:28:13:401
5.289;0.552;6.929;0.7087;-6.8426;6.9863;-0.8512;1.5266;2.0927;0.181;-0.6648;-0.2469;560.0;-9.49;-28.01;-30.54;188.52;36.84;-10.97;5.0;46.243;39.469143;-0.342003;-45.0;NaN;6.89;5.0;237.35;15 / 34;67;2021-10-20 19:28:13:451
9.5141;0.062;5.2151;0.0479;-8.6048;4.707;-4.5052;1.0721;2.1516;-0.2442;-1.4281;0.1998;560.0;-9.49;-28.01;-30.54;188.52;36.84;-10.97;5.0;46.243;39.469193;-0.341988;-45.1;NaN;4.58;4.8;215.88;15 / 34;117;2021-10-20 19:28:13:501
12.609;-2.295;1.689;0.0479;-8.6048;4.707;-4.5052;1.0721;2.1516;-0.3079;-2.0591;0.9745;560.0;-22.09;-26.64;-21.36;145.4;61.32;-0.58;5.0;46.243;39.469193;-0.341988;-45.1;NaN;4.58;4.8;215.88;15 / 34;167;2021-10-20 19:28:13:551
15.6401;-0.797;5.055;-0.6081;-9.3518;2.9018;-6.7422;3.6773;6.0532;-0.3079;-2.0591;0.9745;560.0;-22.09;-26.64;-21.36;145.4;61.32;-0.58;5.0;46.243;39.469193;-0.341988;-45.1;NaN;4.58;4.8;215.88;15 / 34;217;2021-10-20 19:28:13:601
15.6401;-0.797;5.055;-1.3503;-9.3422;2.6624;-8.6203;1.7345;1.7333;0.3592;-2.4079;1.3717;560.0;-31.74;-22.44;-11.21;107.61;72.41;11.84;5.0;48.308;39.469193;-0.341988;-45.1;NaN;4.58;4.8;215.88;15 / 34;266;2021-10-20 19:28:13:650
12.116;-3.207;2.9531;-2.6528;-9.2943;1.6616;-4.1851;3.7071;2.8142;1.05;-1.881;1.6002;560.0;-36.0;-16.01;-7.61;52.62;71.39;57.94;5.0;48.308;39.469193;-0.341988;-45.1;NaN;4.58;4.8;215.88;15 / 34;317;2021-10-20 19:28:13:701
12.573;-2.673;1.0601;-2.2745;-9.4667;1.1971;-4.1851;3.7071;2.8142;1.05;-1.881;1.6002;560.0;-36.0;-16.01;-7.61;52.62;71.39;57.94;5.0;48.308;39.469193;-0.341988;-45.1;NaN;4.58;4.8;215.88;15 / 34;367;2021-10-20 19:28:13:751
10.1441;-3.2621;1.467;-2.9401;-9.0788;2.2505;-3.1786;2.7833;3.082;0.789;-1.7164;1.4582;232.0;-37.99;-9.79;-6.24;40.29;74.81;62.24;5.0;48.308;39.469193;-0.341988;-45.1;NaN;4.58;4.8;215.88;15 / 34;416;2021-10-20 19:28:13:800
9.845;-3.978;1.797;-2.9401;-9.0788;2.2505;-1.128;2.6732;1.2144;0.789;-1.7164;1.4582;232.0;-38.7;-5.89;-4.86;49.55;67.81;52.57;5.0;48.308;39.469193;-0.341988;-45.1;NaN;4.58;4.8;215.88;15 / 34;467;2021-10-20 19:28:13:851
9.119;-5.5811;0.56;-4.0031;-8.9208;0.7422;0.1603;3.3101;2.6221;0.6711;-1.2426;1.1498;232.0;-38.7;-5.89;-4.86;49.55;67.81;52.57;5.0;48.308;39.469193;-0.341988;-45.1;NaN;4.58;4.8;215.88;15 / 34;517;2021-10-20 19:28:13:901
9.119;-5.5811;0.56;-5.9185;-7.7859;0.7374;0.1603;3.3101;2.6221;0.4573;-0.9533;1.4772;232.0;-38.21;-3.9;-5.34;49.55;67.81;52.57;5.0;48.308;39.469193;-0.341988;-45.1;NaN;4.58;4.8;215.88;15 / 34;566;2021-10-20 19:28:13:950
7.899;-8.375;1.0121;-6.9959;-6.8761;0.0;1.3455;5.9395;1.2447;0.4573;-0.9533;1.4772;232.0;-38.21;-3.9;-5.34;49.55;67.81;52.57;5.0;45.761;39.469193;-0.341988;-45.1;NaN;4.58;4.8;215.88;15 / 34;617;2021-10-20 19:28:14:001
7.8431;-10.4291;0.842;-7.2832;-5.794;3.0981;1.1521;6.9068;0.9361;-0.3132;-0.8295;1.9372;232.0;-37.5;-3.6;-7.56;19.11;44.51;90.0;5.0;45.761;39.469193;-0.341988;-45.1;NaN;4.58;4.8;215.88;15 / 34;667;2021-10-20 19:28:14:051
7.554;-5.1671;6.0101;-3.62;-7.2544;5.5115;0.9924;0.6137;-4.3994;0.4241;-0.1833;1.8602;232.0;-37.01;-2.64;-11.46;58.38;36.21;66.96;5.0;45.761;39.469193;-0.341988;-45.1;NaN;4.58;4.8;215.88;15 / 34;716;2021-10-20 19:28:14:100
7.52;-4.4059;2.1731;-3.62;-7.2544;5.5115;0.9924;0.6137;-4.3994;0.4241;-0.1833;1.8602;224.0;-37.01;-2.64;-11.46;58.38;36.21;66.96;5.0;45.761;39.469193;-0.341988;-45.1;NaN;4.58;4.8;215.88;15 / 34;766;2021-10-20 19:28:14:150
7.298;-4.2;-1.8349;-5.6647;-7.8913;-1.3695;1.1823;-0.3251;1.8797;0.8436;0.4113;0.73;224.0;-36.6;0.49;-14.46;58.38;36.21;66.96;5.0;45.761;39.469193;-0.341988;-45.1;NaN;4.58;4.8;215.88;15 / 34;816;2021-10-20 19:28:14:200
7.298;-4.2;-1.8349;-3.735;-9.0692;-0.0144;1.1823;-0.3251;1.8797;0.8436;0.4113;0.73;224.0;-36.3;1.99;-14.21;22.12;67.62;90.22;5.0;45.761;39.469193;-0.341988;-45.1;NaN;4.58;4.8;215.88;15 / 34;866;2021-10-20 19:28:14:250
7.961;-3.915;1.359;-4.5729;-8.3127;2.4948;-0.5157;-1.5933;2.1445;-1.774;0.4324;-0.6946;224.0;-36.3;1.99;-14.21;22.12;67.62;90.22;5.0;44.824;39.469193;-0.341988;-45.1;NaN;4.58;4.8;215.88;15 / 34;916;2021-10-20 19:28:14:300
7.008;-4.4899;1.814;-4.5729;-8.3127;2.4948;0.8621;-1.0605;-0.6001;-2.0622;0.4074;-0.5188;224.0;-36.0;2.59;-14.1;22.12;67.62;90.22;0.0;44.824;39.469193;-0.341988;-45.1;NaN;4.58;4.8;215.88;15 / 34;967;2021-10-20 19:28:14:351
7.7;-4.981;1.034;-5.7892;-7.8961;0.5842;0.6348;-0.0415;0.2616;-2.0622;0.4074;-0.5188;224.0;-36.0;2.59;-14.1;22.12;67.62;90.22;0.0;44.824;39.469193;-0.341988;-45.1;NaN;4.58;4.8;215.88;15 / 34;1017;2021-10-20 19:28:14:401
9.2561;-6.06;0.579;-5.3582;-8.1977;0.5076;0.6348;-0.0415;0.2616;-0.4555;0.3196;-0.0615;261.0;-35.21;3.49;-15.84;34.27;53.61;84.24;0.0;44.824;39.46908;-0.342078;-45.0;NaN;4.61;4.4;192.08;15 / 34;1067;2021-10-20 19:28:14:451
12.138;-7.5131;1.271;-5.138;-8.3079;0.8667;-1.7994;1.8871;-0.5108;-0.4555;0.3196;-0.0615;261.0;-34.44;4.01;-16.01;34.27;53.61;84.24;0.0;44.824;39.46908;-0.342078;-45.0;NaN;4.61;4.4;192.08;15 / 34;1116;2021-10-20 19:28:14:500
12.138;-7.5131;1.271;-5.138;-8.3079;0.8667;-4.6131;4.2972;0.4222;-0.659;0.3227;0.0076;261.0;-34.44;4.01;-16.01;34.27;53.61;84.24;0.0;44.824;39.46908;-0.342078;-45.0;NaN;4.61;4.4;192.08;15 / 34;1166;2021-10-20 19:28:14:550
12.9491;-8.454;2.3861;-5.296;-8.1163;1.494;-4.6131;4.2972;0.4222;-0.437;0.342;-0.0637;261.0;-34.69;5.4;-15.41;34.69;57.9;80.43;5.0;44.824;39.46908;-0.342078;-45.0;NaN;4.61;4.4;192.08;15 / 34;1216;2021-10-20 19:28:14:600
12.8561;-1.74;4.662;-1.2306;-9.1458;3.3184;-5.4856;-2.8217;-3.1583;-0.437;0.342;-0.0637;261.0;-34.69;5.4;-15.41;34.69;57.9;80.43;5.0;48.482;39.46908;-0.342078;-45.0;NaN;4.61;4.4;192.08;15 / 34;1266;2021-10-20 19:28:14:650
5.8091;-6.7451;1.043;-7.3837;-6.3542;1.1349;1.6831;1.1523;0.1446;-0.3784;0.5928;-0.6424;261.0;-35.1;6.11;-15.06;89.4;68.84;20.35;5.0;48.482;39.46908;-0.342078;-45.0;NaN;4.61;4.4;192.08;15 / 34;1316;2021-10-20 19:28:14:700
5.8091;-6.7451;1.043;-7.3837;-6.3542;1.1349;1.6831;1.1523;0.1446;-0.3784;0.5928;-0.6424;261.0;-35.34;3.49;-14.4;89.4;68.84;20.35;5.0;48.482;39.46908;-0.342078;-45.0;NaN;4.61;4.4;192.08;15 / 34;1367;2021-10-20 19:28:14:751
7.0751;-5.17;0.7061;-5.7652;-7.8961;0.7757;2.0906;1.2268;1.2791;0.3666;0.1306;-0.0437;261.0;-35.34;3.49;-14.4;89.4;68.84;20.35;5.0;48.482;39.46908;-0.342078;-45.0;NaN;4.61;4.4;192.08;15 / 34;1416;2021-10-20 19:28:14:800
6.702;-4.2461;1.5581;-5.1427;-8.1355;1.8866;1.1798;-0.9398;-0.0376;0.2999;-0.4583;0.8007;261.0;-35.7;-1.44;-13.14;33.48;53.62;82.34;5.0;48.482;39.46908;-0.342078;-45.0;NaN;4.61;4.4;192.08;15 / 34;1466;2021-10-20 19:28:14:850
6.702;-4.2461;1.5581;-5.1427;-8.1355;1.8866;1.1798;-0.9398;-0.0376;0.2999;-0.4583;0.8007;261.0;-36.24;-4.5;-11.94;33.48;53.62;82.34;5.0;48.482;39.46908;-0.342078;-45.0;NaN;4.61;4.4;192.08;15 / 34;1517;2021-10-20 19:28:14:901
5.4641;-6.098;2.046;-7.082;-6.3542;2.375;2.5734;0.5846;-0.5429;0.6482;-0.4661;0.4267;261.0;-36.24;-4.5;-11.94;33.48;53.62;82.34;5.0;46.857;39.46908;-0.342078;-45.0;NaN;4.61;4.4;192.08;15 / 34;1567;2021-10-20 19:28:14:951
7.5731;-7.858;1.709;-6.9719;-6.7277;1.5131;0.888;1.4975;-0.2881;0.6482;-0.4661;0.4267;261.0;-36.19;-6.54;-10.26;54.87;40.39;71.46;5.0;46.857;39.46908;-0.342078;-45.0;NaN;4.61;4.4;192.08;15 / 34;1616;2021-10-20 19:28:15:000
7.5731;-7.858;1.709;-6.9719;-6.7277;1.5131;0.888;1.4975;-0.2881;0.9943;-0.5435;1.0284;261.0;-36.49;-7.61;-8.46;54.87;40.39;71.46;5.0;46.857;39.46908;-0.342078;-45.0;NaN;4.61;4.4;192.08;15 / 34;1667;2021-10-20 19:28:15:051
10.172;-10.1201;0.548;-6.9145;-6.9432;0.3735;-2.3841;2.9827;0.6773;0.4106;-0.6372;0.6542;261.0;-36.49;-7.5;-8.04;26.99;45.08;86.91;5.0;46.857;39.46908;-0.342078;-45.0;NaN;4.61;4.4;192.08;15 / 34;1717;2021-10-20 19:28:15:101
7.899;-6.177;4.626;-3.2274;-7.9009;4.8315;-0.5478;-0.1535;-3.0904;0.4106;-0.6372;0.6542;259.0;-36.49;-7.5;-8.04;26.99;45.08;86.91;5.0;46.857;39.46908;-0.342078;-45.0;NaN;4.61;4.4;192.08;15 / 34;1767;2021-10-20 19:28:15:151
9.4901;-2.113;3.2141;-3.4429;-9.1554;0.6991;-2.1156;-4.1299;-1.472;0.983;-0.352;0.0117;259.0;-36.54;-5.34;-8.76;78.06;53.67;33.74;5.0;46.857;39.46908;-0.342078;-45.0;NaN;4.61;4.4;192.08;15 / 34;1817;2021-10-20 19:28:15:201
7.1831;-5.23;-1.797;-3.4429;-9.1554;0.6991;-2.1156;-4.1299;-1.472;0.7499;-0.2137;-0.7721;259.0;-36.11;-2.4;-10.5;78.06;53.67;33.74;5.0;46.602;39.46908;-0.342078;-45.0;NaN;4.61;4.4;192.08;15 / 34;1867;2021-10-20 19:28:15:251
8.1641;-4.145;-0.059;-5.1667;-8.2887;-0.8811;0.4239;-0.5223;3.2503;0.7499;-0.2137;-0.7721;259.0;-36.11;-2.4;-10.5;78.06;53.67;33.74;5.0;46.602;39.46908;-0.342078;-45.0;NaN;4.61;4.4;192.08;15 / 34;1916;2021-10-20 19:28:15:300
8.1311;-3.549;1.797;-3.7972;-8.9639;1.1827;-0.3275;-1.6247;0.9491;-1.5755;-0.1521;-0.7421;259.0;-35.94;-1.69;-10.56;8.93;57.69;99.68;5.0;46.602;39.46908;-0.342078;-45.0;NaN;4.61;4.4;192.08;15 / 34;1967;2021-10-20 19:28:15:351
8.1311;-3.549;1.797;-5.047;-7.9966;2.5953;-0.3275;-1.6247;0.9491;-1.5755;-0.1521;-0.7421;259.0;-35.94;-1.69;-10.56;8.93;57.69;99.68;0.0;46.602;39.46908;-0.342078;-45.0;NaN;4.61;4.4;192.08;18 / 34;2017;2021-10-20 19:28:15:401
7.14;-4.696;1.749;-4.9033;-8.4898;0.1293;1.1991;-0.7415;-1.2667;-0.4421;0.1209;-0.4412;277.0;-35.94;-0.6;-10.86;8.93;57.69;99.68;0.0;46.602;39.469074;-0.342075;-45.0;NaN;4.48;4.2;199.54;18 / 34;2067;2021-10-20 19:28:15:451
8.597;-4.861;0.0281;-4.9033;-8.4898;0.1293;0.2913;-0.359;0.9726;-0.0799;0.2111;-0.2856;277.0;-35.4;0.11;-12.41;23.28;59.98;88.49;0.0;46.602;39.469074;-0.342075;-45.0;NaN;4.48;4.2;199.54;18 / 34;2117;2021-10-20 19:28:15:501
10.9841;-6.1219;1.536;-4.5298;-8.6239;1.1205;-2.4939;0.7951;-0.2719;-0.0799;0.2111;-0.2856;277.0;-35.4;0.11;-12.41;23.28;59.98;88.49;0.0;46.602;39.469074;-0.342075;-45.0;NaN;4.48;4.2;199.54;18 / 34;2167;2021-10-20 19:28:15:551
13.5641;-9.222;0.485;-5.2433;-8.2791;0.3352;-2.4939;0.7951;-0.2719;-0.4836;0.2076;-0.1009;277.0;-34.61;0.19;-12.96;27.84;57.6;86.34;0.0;50.411;39.469074;-0.342075;-45.0;NaN;4.48;4.2;199.54;18 / 34;2216;2021-10-20 19:28:15:600
14.819;-1.6729;3.032;-3.6392;-9.0118;1.3072;-5.1364;4.2845;0.5109;-0.8618;0.187;-0.0316;277.0;-34.39;1.99;-12.9;42.21;66.78;70.24;5.0;50.411;39.469074;-0.342075;-45.0;NaN;4.48;4.2;199.54;18 / 34;2266;2021-10-20 19:28:15:650
14.819;-1.6729;3.032;-0.996;-9.256;3.0837;-6.0735;-4.7448;-3.2396;-0.8618;0.187;-0.0316;277.0;-34.39;1.99;-12.9;42.21;66.78;70.24;5.0;50.411;39.469074;-0.342075;-45.0;NaN;4.48;4.2;199.54;18 / 34;2316;2021-10-20 19:28:15:700
8.901;-3.64;2.4821;-7.4986;-6.2872;0.6752;1.7698;0.9387;-0.3799;-0.5906;0.5611;-0.8264;277.0;-34.61;2.89;-12.96;42.21;66.78;70.24;5.0;50.411;39.469074;-0.342075;-45.0;NaN;4.48;4.2;199.54;18 / 34;2366;2021-10-20 19:28:15:750
4.799;-6.874;0.074;-7.4986;-6.2872;0.6752;1.7698;0.9387;-0.3799;-0.5906;0.5611;-0.8264;175.0;-34.61;2.89;-12.96;42.21;66.78;70.24;5.0;50.411;39.469074;-0.342075;-45.0;NaN;4.48;4.2;199.54;18 / 34;2416;2021-10-20 19:28:15:800
7.896;-4.7411;1.61;-6.3925;-7.4029;0.7326;2.1565;1.4752;0.7016;0.2325;0.2828;-0.1563;175.0;-34.69;0.11;-12.9;33.92;49.0;83.46;5.0;50.411;39.469074;-0.342075;-45.0;NaN;4.48;4.2;199.54;18 / 34;2466;2021-10-20 19:28:15:850
7.827;-4.0519;2.5991;-3.7541;-8.734;2.399;2.1565;1.4752;0.7016;0.2234;-0.1972;0.9717;175.0;-34.74;-2.89;-11.21;33.92;49.0;83.46;5.0;45.383;39.469074;-0.342075;-45.0;NaN;4.48;4.2;199.54;18 / 34;2516;2021-10-20 19:28:15:900
5.507;-5.9719;2.25;-6.4691;-6.8953;2.6145;0.6102;-0.7894;-1.2614;0.2234;-0.1972;0.9717;175.0;-34.74;-2.89;-11.21;33.92;49.0;83.46;5.0;45.383;39.469074;-0.342075;-45.0;NaN;4.48;4.2;199.54;18 / 34;2566;2021-10-20 19:28:15:950
6.477;-6.101;1.845;-6.8522;-6.608;2.3559;2.7635;1.0085;-0.671;0.9217;-0.0995;0.4087;175.0;-34.8;-4.44;-9.41;50.65;44.66;67.99;5.0;45.383;39.469074;-0.342075;-45.0;NaN;4.48;4.2;199.54;18 / 34;2616;2021-10-20 19:28:16:000
6.477;-6.101;1.845;-6.9192;-6.7564;1.6281;2.7635;1.0085;-0.671;1.0491;-0.3118;1.0072;175.0;-34.91;-6.19;-8.94;43.46;43.55;76.76;5.0;45.383;39.469074;-0.342075;-45.0;NaN;4.48;4.2;199.54;18 / 34;2666;2021-10-20 19:28:16:050
7.7;-8.332;2.01;-6.426;-7.3502;0.9433;0.5371;2.0971;0.0196;1.0491;-0.3118;1.0072;175.0;-34.91;-6.19;-8.94;43.46;43.55;76.76;5.0;45.383;39.469074;-0.342075;-45.0;NaN;4.48;4.2;199.54;18 / 34;2716;2021-10-20 19:28:16:100
9.995;-9.8179;1.2611;-6.426;-7.3502;0.9433;-2.7274;3.2105;0.4767;0.4066;-0.4086;0.7868;161.0;-34.91;-6.71;-8.46;32.45;48.54;81.65;5.0;45.383;39.469074;-0.342075;-45.0;NaN;4.48;4.2;199.54;18 / 34;2766;2021-10-20 19:28:16:150
8.966;-4.725;4.6841;-6.3063;-6.8666;3.0406;-1.5355;-1.4564;-2.9522;0.3629;-0.3018;0.4445;161.0;-34.91;-6.71;-8.46;32.45;48.54;81.65;5.0;45.383;39.469074;-0.342075;-45.0;NaN;4.48;4.2;199.54;18 / 34;2816;2021-10-20 19:28:16:200
9.842;-2.707;2.123;-1.4174;-9.0022;3.6248;-1.5355;-1.4564;-2.9522;0.3629;-0.3018;0.4445;161.0;-35.1;-5.29;-8.81;32.45;48.54;81.65;5.0;49.703;39.469074;-0.342075;-45.0;NaN;4.48;4.2;199.54;18 / 34;2867;2021-10-20 19:28:16:251
6.3671;-5.2871;-1.56;-5.8658;-7.7045;-1.5419;-2.3053;-3.2844;-0.1835;0.793;-0.1445;-0.624;161.0;-35.29;-3.6;-10.26;1.7;51.79;104.73;5.0;49.703;39.469074;-0.342075;-45.0;NaN;4.48;4.2;199.54;18 / 34;2917;2021-10-20 19:28:16:301
6.3671;-5.2871;-1.56;-4.8076;-8.4515;-1.2929;1.4785;-0.7917;3.382;0.793;-0.1445;-0.624;161.0;-35.29;-3.6;-10.26;1.7;51.79;104.73;5.0;49.703;39.469074;-0.342075;-45.0;NaN;4.48;4.2;199.54;18 / 34;2966;2021-10-20 19:28:16:350
7.602;-3.4849;-0.2321;-4.0414;-8.8059;1.4988;1.4785;-0.7917;3.382;-0.9695;-0.138;-0.9806;161.0;-34.69;-3.19;-10.91;2.92;59.5;105.05;0.0;49.703;39.469074;-0.342075;-45.0;NaN;4.48;4.2;199.54;18 / 34;3016;2021-10-20 19:28:16:400
7.82;-3.805;1.9571;-4.0414;-8.8059;1.4988;0.3714;-1.6247;-0.0592;-1.5055;-0.0982;-0.2511;181.0;-34.31;-3.19;-11.64;44.4;63.92;69.65;0.0;49.703;39.469097;-0.34207;-44.9;NaN;3.87;4.0;202.54;18 / 34;3067;2021-10-20 19:28:16:451
7.7171;-4.5311;1.3781;-4.64;-8.3462;2.2458;0.6405;-0.5227;-0.3727;-1.5055;-0.0982;-0.2511;181.0;-34.31;-3.19;-11.64;44.4;63.92;69.65;0.0;49.703;39.469097;-0.34207;-44.9;NaN;3.87;4.0;202.54;18 / 34;3116;2021-10-20 19:28:16:500
8.7341;-4.705;-0.011;-4.64;-8.6383;0.158;0.6405;-0.5227;-0.3727;-0.1735;0.253;-0.3989;181.0;-34.2;-2.51;-12.66;44.4;63.92;69.65;0.0;50.077;39.469097;-0.34207;-44.9;NaN;3.87;4.0;202.54;18 / 34;3166;2021-10-20 19:28:16:550
10.074;-6.802;1.3781;-5.2864;-8.2217;0.7853;-0.2918;-0.1768;1.0876;-0.4553;0.1998;-0.0808;181.0;-33.3;-1.91;-13.2;35.66;56.97;81.55;0.0;50.077;39.469097;-0.34207;-44.9;NaN;3.87;4.0;202.54;18 / 34;3217;2021-10-20 19:28:16:601
10.074;-6.802;1.3781;-5.2625;-8.26;0.5411;-3.1454;2.3144;-0.252;-0.4553;0.1998;-0.0808;181.0;-33.3;-1.91;-13.2;35.66;56.97;81.55;5.0;50.077;39.469097;-0.34207;-44.9;NaN;3.87;4.0;202.54;18 / 34;3267;2021-10-20 19:28:16:651
13.361;-9.375;1.23;-3.122;-8.8538;2.8299;-3.1454;2.3144;-0.252;-0.6005;0.1375;0.1122;181.0;-33.41;-1.61;-13.14;35.66;56.97;81.55;5.0;50.077;39.469097;-0.34207;-44.9;NaN;3.87;4.0;202.54;18 / 34;3316;2021-10-20 19:28:16:700
13.7771;-1.299;4.586;-3.122;-8.8538;2.8299;-4.0083;-0.5967;-3.002;-0.6005;0.1375;0.1122;181.0;-33.6;-0.41;-13.26;65.4;64.55;47.81;5.0;50.077;39.469097;-0.34207;-44.9;NaN;3.87;4.0;202.54;18 / 34;3367;2021-10-20 19:28:16:751
8.9351;-4.284;2.238;-1.5323;-9.1794;3.0885;-3.1426;-2.7671;-2.7348;0.0956;0.414;-0.5325;183.0;-33.6;-0.41;-13.26;65.4;64.55;47.81;5.0;50.077;39.469097;-0.34207;-44.9;NaN;3.87;4.0;202.54;18 / 34;3416;2021-10-20 19:28:16:800
5.6651;-6.249;0.0401;-7.2688;-6.5841;0.0335;2.8614;2.0353;1.0206;0.5115;0.3934;-0.532;183.0;-33.54;-0.71;-13.26;85.44;69.41;26.39;5.0;50.077;39.469097;-0.34207;-44.9;NaN;3.87;4.0;202.54;18 / 34;3467;2021-10-20 19:28:16:851
8.1071;-4.0691;1.484;-7.2688;-6.5841;0.0335;2.8614;2.0353;1.0206;0.5115;0.3934;-0.532;183.0;-33.54;-0.71;-13.26;85.44;69.41;26.39;5.0;46.741;39.469097;-0.34207;-44.9;NaN;3.87;4.0;202.54;18 / 34;3516;2021-10-20 19:28:16:900
8.1071;-4.0691;1.484;-4.1324;-8.691;1.8914;0.5351;-0.2827;0.1676;-0.1635;-0.059;0.5074;183.0;-33.19;-3.41;-12.41;31.42;42.17;89.74;5.0;46.741;39.469097;-0.34207;-44.9;NaN;3.87;4.0;202.54;18 / 34;3566;2021-10-20 19:28:16:950
6.75;-4.777;2.3;-6.043;-7.2018;2.7964;1.7311;0.067;-0.7767;0.0402;-0.175;0.5478;183.0;-32.89;-6.11;-11.16;58.65;47.24;65.17;5.0;46.741;39.469097;-0.34207;-44.9;NaN;3.87;4.0;202.54;18 / 34;3616;2021-10-20 19:28:17:000
5.907;-5.716;2.721;-6.4643;-6.7277;3.0263;2.4475;0.8069;-1.1234;0.0402;-0.175;0.5478;183.0;-32.89;-6.11;-11.16;58.65;47.24;65.17;5.0;46.741;39.469097;-0.34207;-44.9;NaN;3.87;4.0;202.54;18 / 34;3667;2021-10-20 19:28:17:051
6.7571;-5.842;1.914;-6.4643;-6.7277;3.0263;2.4475;0.8069;-1.1234;0.9463;-0.0883;0.6324;183.0;-33.19;-8.34;-11.04;58.65;47.24;65.17;5.0;46.741;39.469097;-0.34207;-44.9;NaN;3.87;4.0;202.54;18 / 34;3716;2021-10-20 19:28:17:100
8.66;-7.707;1.673;-6.517;-7.2257;1.2306;0.685;1.2376;0.4462;0.9463;-0.0883;0.6324;161.0;-33.41;-9.0;-10.31;44.14;47.45;79.31;5.0;46.741;39.469097;-0.34207;-44.9;NaN;3.87;4.0;202.54;18 / 34;3767;2021-10-20 19:28:17:151
9.5261;-8.32;1.503;-6.0286;-7.6088;1.3791;-1.3508;1.9588;0.0045;0.4632;-0.2083;0.8337;161.0;-33.41;-9.0;-10.31;44.14;47.45;79.31;5.0;45.989;39.469097;-0.34207;-44.9;NaN;3.87;4.0;202.54;18 / 34;3817;2021-10-20 19:28:17:201
9.5261;-8.32;1.503;-6.2824;-7.1587;2.3367;-1.3508;1.9588;0.0045;0.01;-0.3178;0.4381;161.0;-33.49;-8.34;-9.54;44.14;47.45;79.31;5.0;45.989;39.469097;-0.34207;-44.9;NaN;3.87;4.0;202.54;18 / 34;3866;2021-10-20 19:28:17:250
8.9591;-5.282;3.966;-1.901;-8.9543;3.5195;-0.7687;1.5482;-0.9447;0.01;-0.3178;0.4381;161.0;-33.49;-8.34;-9.54;44.14;47.45;79.31;5.0;45.989;39.469097;-0.34207;-44.9;NaN;3.87;4.0;202.54;18 / 34;3916;2021-10-20 19:28:17:300
10.467;-2.501;3.006;-1.901;-8.9543;3.5195;-2.7462;-3.2444;-1.0603;0.6254;-0.0976;-0.213;161.0;-33.49;-7.2;-10.5;84.2;65.93;28.38;5.0;45.989;39.469097;-0.34207;-44.9;NaN;3.87;4.0;202.54;18 / 34;3966;2021-10-20 19:28:17:350
6.7811;-5.4431;-0.378;-5.3726;-8.1834;0.5842;1.1574;0.0564;2.4685;0.4;-0.0341;-0.699;161.0;-33.3;-6.0;-12.06;33.99;56.56;83.79;5.0;45.989;39.469097;-0.34207;-44.9;NaN;3.87;4.0;202.54;18 / 34;4016;2021-10-20 19:28:17:400
7.133;-3.7339;-0.05;-5.3343;-8.1594;-1.087;1.1574;0.0564;2.4685;0.4;-0.0341;-0.699;165.0;-33.3;-6.0;-12.06;33.99;56.56;83.79;5.0;45.989;39.469097;-0.342077;-44.2;NaN;4.37;3.5;196.16;17 / 34;4066;2021-10-20 19:28:17:450
7.374;-3.669;1.275;-4.1037;-8.8011;1.3886;1.0404;-1.35;1.963;-1.2189;-0.1171;-0.4183;165.0;-32.7;-6.0;-13.31;33.99;56.56;83.79;5.0;45.989;39.469097;-0.342077;-44.2;NaN;4.37;3.5;196.16;17 / 34;4116;2021-10-20 19:28:17:500
7.374;-3.669;1.275;-4.7453;-8.4898;1.2785;0.9578;-1.1348;0.0815;-1.2189;-0.1171;-0.4183;165.0;-31.91;-6.3;-14.34;46.7;59.93;74.92;5.0;49.886;39.469097;-0.342077;-44.2;NaN;4.37;3.5;196.16;17 / 34;4166;2021-10-20 19:28:17:550
7.9271;-4.243;1.043;-4.2282;-8.8298;0.5698;-0.0101;-0.8579;0.4002;-1.0377;0.0366;-0.1732;165.0;-31.91;-6.3;-14.34;46.7;59.93;74.92;5.0;49.886;39.469097;-0.342077;-44.2;NaN;4.37;3.5;196.16;17 / 34;4216;2021-10-20 19:28:17:600
8.856;-4.497;0.428;-4.2282;-8.8298;0.5698;-0.0101;-0.8579;0.4002;-0.5375;0.2354;-0.3545;165.0;-31.91;-5.94;-14.04;36.8;64.21;82.32;0.0;49.886;39.469097;-0.342077;-44.2;NaN;4.37;3.5;196.16;17 / 34;4266;2021-10-20 19:28:17:650
9.9311;-6.5749;0.974;-4.9225;-8.4563;0.6369;-0.8477;0.2475;0.6331;-0.5375;0.2354;-0.3545;165.0;-31.91;-5.94;-14.04;36.8;64.21;82.32;0.0;49.886;39.469097;-0.342077;-44.2;NaN;4.37;3.5;196.16;17 / 34;4317;2021-10-20 19:28:17:701
13.0451;-7.764;1.23;-5.0039;-8.3989;0.7901;-3.0056;2.064;-0.3416;-0.4929;0.0909;-0.065;165.0;-32.34;-5.1;-13.5;37.69;59.59;82.63;0.0;49.886;39.469097;-0.342077;-44.2;NaN;4.37;3.5;196.16;17 / 34;4366;2021-10-20 19:28:17:750
13.622;-3.482;2.4821;-2.3846;-9.3613;1.7047;-3.0056;2.064;-0.3416;-0.1728;0.0895;0.0389;173.0;-32.29;-3.49;-13.2;36.86;58.9;81.03;0.0;49.886;39.469097;-0.342077;-44.2;NaN;4.37;3.5;196.16;17 / 34;4416;2021-10-20 19:28:17:800
11.384;-1.979;2.585;-1.6376;-9.4284;2.1356;-5.151;-1.3734;-1.5038;-0.1728;0.0895;0.0389;173.0;-32.29;-3.49;-13.2;36.86;58.9;81.03;0.0;48.123;39.469097;-0.342077;-44.2;NaN;4.37;3.5;196.16;17 / 34;4466;2021-10-20 19:28:17:850
11.384;-1.979;2.585;-1.6376;-9.4284;2.1356;-0.3203;-0.0855;-0.4094;-0.1726;0.3483;-0.8788;173.0;-32.64;-2.29;-12.0;74.0;74.07;37.48;5.0;48.123;39.469097;-0.342077;-44.2;NaN;4.37;3.5;196.16;17 / 34;4516;2021-10-20 19:28:17:900
6.881;-6.6469;0.801;-6.79;-7.0294;0.8092;-0.3203;-0.0855;-0.4094;0.1;0.1753;-0.479;173.0;-32.64;-3.49;-11.46;35.93;45.79;83.2;5.0;48.123;39.469097;-0.342077;-44.2;NaN;4.37;3.5;196.16;17 / 34;4567;2021-10-20 19:28:17:951
8.5781;-4.8131;1.838;-4.7166;-8.4084;1.7909;0.6796;1.2995;-0.0335;0.1;0.1753;-0.479;173.0;-32.64;-3.49;-11.46;35.93;45.79;83.2;5.0;48.123;39.469097;-0.342077;-44.2;NaN;4.37;3.5;196.16;17 / 34;4617;2021-10-20 19:28:18:001
7.338;-4.8079;2.975;-5.0949;-7.7668;3.146;1.3477;0.4463;-1.5972;0.6054;-0.2204;0.8293;173.0;-32.21;-6.11;-10.8;48.4;59.04;69.21;5.0;48.123;39.469097;-0.342077;-44.2;NaN;4.37;3.5;196.16;17 / 34;4667;2021-10-20 19:28:18:051
5.622;-5.481;1.974;-6.6463;-6.8091;2.3798;1.3477;0.4463;-1.5972;0.6054;-0.2204;0.8293;173.0;-32.21;-6.11;-10.8;48.4;59.04;69.21;5.0;48.123;39.469097;-0.342077;-44.2;NaN;4.37;3.5;196.16;17 / 34;4716;2021-10-20 19:28:18:100
5.213;-5.739;2.24;-6.9815;-6.3303;2.7198;2.8774;0.8059;-0.4437;1.0339;-0.1363;0.7013;159.0;-32.04;-8.89;-9.71;59.09;43.97;70.3;5.0;46.278;39.469097;-0.342077;-44.2;NaN;4.37;3.5;196.16;17 / 34;4767;2021-10-20 19:28:18:151
5.213;-5.739;2.24;-6.9815;-6.3303;2.7198;3.0168;0.6962;-0.4377;0.9325;-0.0885;1.1242;159.0;-31.31;-11.04;-9.11;67.51;40.19;68.72;5.0;46.278;39.469097;-0.342077;-44.2;NaN;4.37;3.5;196.16;17 / 34;4817;2021-10-20 19:28:18:201
7.2191;-7.1711;1.247;-6.857;-6.9097;1.1875;0.0485;2.1364;0.7763;0.9325;-0.0885;1.1242;159.0;-31.31;-11.04;-9.11;67.51;40.19;68.72;5.0;46.278;39.469097;-0.342077;-44.2;NaN;4.37;3.5;196.16;17 / 34;4866;2021-10-20 19:28:18:250
9.71;-8.502;1.3541;-6.4308;-7.3358;1.0199;0.0485;2.1364;0.7763;0.1991;-0.2848;0.8965;159.0;-30.71;-11.89;-8.4;47.56;44.8;80.17;5.0;46.278;39.469097;-0.342077;-44.2;NaN;4.37;3.5;196.16;17 / 34;4916;2021-10-20 19:28:18:300
8.585;-6.7781;3.858;-5.7269;-7.2592;3.2609;-2.0767;2.8454;0.3391;-0.0056;-0.3318;0.487;159.0;-30.79;-10.8;-8.46;47.56;44.8;80.17;5.0;46.278;39.469097;-0.342077;-44.2;NaN;4.37;3.5;196.16;17 / 34;4966;2021-10-20 19:28:18:350
11.417;-1.4839;3.533;-1.1971;-9.2991;2.873;-3.0223;-3.4846;-2.7104;-0.0056;-0.3318;0.487;159.0;-30.79;-10.8;-8.46;47.56;44.8;80.17;5.0;46.278;39.469097;-0.342077;-44.2;NaN;4.37;3.5;196.16;17 / 34;5027;2021-10-20 19:28:18:411
8.1;-4.7921;-0.832;-1.1971;-9.2991;2.873;-2.9248;-3.6503;0.1906;0.5407;-0.0766;-0.9485;161.0;-31.39;-8.1;-9.54;89.98;71.49;22.62;5.0;46.278;39.469093;-0.342088;-44.3;NaN;5.3;3.5;187.91;17 / 34;5067;2021-10-20 19:28:18:451
8.1;-4.7921;-0.832;-5.3486;-8.0493;-1.6807;-2.9248;-3.6503;0.1906;0.5407;-0.0766;-0.9485;161.0;-31.39;-8.1;-9.54;89.98;71.49;22.62;5.0;48.672;39.469093;-0.342088;-44.3;NaN;5.3;3.5;187.91;17 / 34;5116;2021-10-20 19:28:18:500
8.538;-3.588;-0.301;-3.1412;-9.2512;0.8428;0.2915;-0.6847;3.2714;-0.2456;-0.142;-1.2697;161.0;-31.8;-6.9;-10.31;89.98;71.49;22.62;5.0;48.672;39.469093;-0.342088;-44.3;NaN;5.3;3.5;187.91;17 / 34;5166;2021-10-20 19:28:18:550
8.2811;-2.862;0.624;-3.1412;-9.2512;0.8428;0.2664;-1.7835;0.7202;-1.3159;-0.2243;-0.6358;161.0;-31.91;-6.84;-10.91;38.07;70.63;74.98;5.0;48.672;39.469093;-0.342088;-44.3;NaN;5.3;3.5;187.91;17 / 34;5216;2021-10-20 19:28:18:600
7.803;-4.198;0.6461;-4.4676;-8.7149;0.5363;0.2664;-1.7835;0.7202;-1.3159;-0.2243;-0.6358;161.0;-31.91;-6.84;-10.91;38.07;70.63;74.98;5.0;48.672;39.469093;-0.342088;-44.3;NaN;5.3;3.5;187.91;17 / 34;5267;2021-10-20 19:28:18:651
9.203;-3.743;0.617;-4.2186;-8.8346;0.5794;0.5823;-0.0973;0.2206;-0.7947;0.0103;-0.3701;161.0;-31.31;-6.41;-11.94;34.32;64.27;82.18;5.0;48.672;39.469093;-0.342088;-44.3;NaN;5.3;3.5;187.91;17 / 34;5317;2021-10-20 19:28:18:701
9.497;-5.8301;0.572;-4.4915;-8.7005;0.5411;-0.6488;0.5487;0.1466;-0.5287;0.1165;-0.2823;161.0;-31.14;-6.24;-12.54;34.32;64.27;82.18;5.0;48.672;39.469093;-0.342088;-44.3;NaN;5.3;3.5;187.91;17 / 34;5367;2021-10-20 19:28:18:751
9.497;-5.8301;0.572;-4.9321;-8.3701;1.3408;-0.6488;0.5487;0.1466;-0.5287;0.1165;-0.2823;199.0;-31.14;-6.24;-12.54;34.32;64.27;82.18;5.0;44.783;39.469093;-0.342088;-44.3;NaN;5.3;3.5;187.91;17 / 34;5417;2021-10-20 19:28:18:801
11.654;-6.18;1.788;-5.3726;-8.1546;0.9098;-1.6246;1.7542;-0.9443;-0.1825;0.1665;0.0919;199.0;-31.09;-5.59;-12.6;46.69;58.59;74.79;5.0;44.783;39.469093;-0.342088;-44.3;NaN;5.3;3.5;187.91;17 / 34;5466;2021-10-20 19:28:18:850
11.573;-7.393;2.4671;-1.0678;-9.2895;2.9497;-2.8894;2.8763;-1.6757;0.1148;0.206;0.2309;199.0;-31.09;-5.59;-12.6;46.69;58.59;74.79;5.0;44.783;39.469093;-0.342088;-44.3;NaN;5.3;3.5;187.91;17 / 34;5516;2021-10-20 19:28:18:900
12.365;-0.732;3.968;-1.0678;-9.2895;2.9497;-2.8894;2.8763;-1.6757;0.1148;0.206;0.2309;199.0;-30.84;-3.9;-12.41;93.4;71.34;19.9;5.0;44.783;39.469093;-0.342088;-44.3;NaN;5.3;3.5;187.91;17 / 34;5566;2021-10-20 19:28:18:950
6.776;-5.967;1.1171;-4.5969;-8.509;1.6328;-1.6736;-2.2391;-1.7928;0.2938;0.4007;-0.446;199.0;-31.69;-3.11;-11.7;46.11;60.17;70.44;5.0;44.783;39.469093;-0.342088;-44.3;NaN;5.3;3.5;187.91;17 / 34;5616;2021-10-20 19:28:19:000
9.143;-3.966;0.7391;-5.5258;-8.0972;0.2634;2.4336;2.098;0.9988;0.2938;0.4007;-0.446;199.0;-31.69;-3.11;-11.7;46.11;60.17;70.44;5.0;44.783;39.469093;-0.342088;-44.3;NaN;5.3;3.5;187.91;17 / 34;5666;2021-10-20 19:28:19:050
8.571;-3.956;2.3261;-3.3088;-9.0644;1.7526;-0.9251;-0.6549;0.247;0.0025;0.195;-0.249;199.0;-32.34;-4.5;-10.2;25.87;55.66;87.27;5.0;45.095;39.469093;-0.342088;-44.3;NaN;5.3;3.5;187.91;17 / 34;5716;2021-10-20 19:28:19:100
8.571;-3.956;2.3261;-3.3088;-9.0644;1.7526;-0.9251;-0.6549;0.247;0.1757;-0.2032;0.3666;197.0;-32.51;-6.41;-8.4;46.72;67.56;62.09;5.0;45.095;39.469093;-0.342088;-44.3;NaN;5.3;3.5;187.91;17 / 34;5766;2021-10-20 19:28:19:150
6.3;-5.1941;2.594;-5.9472;-7.2113;2.964;2.1057;0.6695;-1.1037;0.1757;-0.2032;0.3666;197.0;-32.51;-6.41;-8.4;46.72;67.56;62.09;5.0;45.095;39.469093;-0.342088;-44.3;NaN;5.3;3.5;187.91;17 / 34;5817;2021-10-20 19:28:19:201
6.273;-5.5241;2.64;-6.1818;-7.0198;2.9449;2.4914;1.0847;-1.2155;1.3513;-0.1453;0.6486;197.0;-32.64;-8.21;-7.56;46.72;67.56;62.09;5.0;45.095;39.469093;-0.342088;-44.3;NaN;5.3;3.5;187.91;17 / 34;5867;2021-10-20 19:28:19:251
7.973;-7.269;1.496;-6.541;-7.1826;1.336;0.96;1.563;0.1297;0.9449;-0.1727;1.0488;197.0;-32.64;-8.21;-7.56;46.72;67.56;62.09;5.0;45.095;39.469093;-0.342088;-44.3;NaN;5.3;3.5;187.91;17 / 34;5916;2021-10-20 19:28:19:300
9.411;-7.362;1.919;-5.9663;-7.6279;1.5467;0.96;1.563;0.1297;0.9449;-0.1727;1.0488;197.0;-32.4;-10.01;-7.14;41.23;47.09;78.46;5.0;45.095;39.469093;-0.342088;-44.3;NaN;5.3;3.5;187.91;17 / 34;5966;2021-10-20 19:28:19:350
8.1281;-7.6331;2.6471;-6.5362;-6.9528;2.2649;-1.4005;2.0284;0.0519;0.1919;-0.3333;0.6768;197.0;-32.4;-10.91;-6.41;40.84;51.06;75.47;5.0;45.095;39.469093;-0.342095;-44.0;NaN;5.13;3.5;190.47;19 / 34;6016;2021-10-20 19:28:19:400
8.1281;-7.6331;2.6471;-6.5362;-6.9528;2.2649;-0.2903;2.0165;-0.7935;0.1919;-0.3333;0.6768;196.0;-32.4;-10.91;-6.41;40.84;51.06;75.47;5.0;47.803;39.469093;-0.342095;-44.0;NaN;5.13;3.5;190.47;19 / 34;6066;2021-10-20 19:28:19:450
9.7871;-2.609;3.686;-2.3703;-8.9064;3.3519;-1.534;-2.9595;-0.3479;0.4334;-0.2047;0.2914;196.0;-33.11;-10.2;-6.96;75.65;65.25;35.27;5.0;47.803;39.469093;-0.342095;-44.0;NaN;5.13;3.5;190.47;19 / 34;6116;2021-10-20 19:28:19:500
7.6661;-5.005;-0.011;-5.363;-8.2121;0.0;-1.534;-2.9595;-0.3479;0.488;-0.1368;-0.393;196.0;-33.24;-9.24;-8.16;19.41;56.85;90.0;5.0;47.803;39.469093;-0.342095;-44.0;NaN;5.13;3.5;190.47;19 / 34;6166;2021-10-20 19:28:19:550
7.91;-4.1;-0.765;-4.5011;-8.6718;-0.838;0.3746;-0.6456;3.1142;0.488;-0.1368;-0.393;196.0;-33.24;-9.24;-8.16;19.41;56.85;90.0;5.0;47.803;39.469093;-0.342095;-44.0;NaN;5.13;3.5;190.47;19 / 34;6216;2021-10-20 19:28:19:600
6.9791;-3.556;0.8681;-4.4293;-8.6862;1.0678;0.3746;-0.6456;3.1142;-0.7782;-0.3413;-0.6687;196.0;-33.19;-8.64;-8.51;19.41;56.85;90.0;5.0;47.803;39.469093;-0.342095;-44.0;NaN;5.13;3.5;190.47;19 / 34;6267;2021-10-20 19:28:19:651
7.317;-4.002;1.2371;-4.6495;-8.5186;1.4269;1.3167;-1.4839;0.5743;-0.9134;-0.1985;-0.2559;196.0;-33.19;-8.64;-8.51;19.41;56.85;90.0;5.0;47.803;39.469093;-0.342095;-44.0;NaN;5.13;3.5;190.47;19 / 34;6317;2021-10-20 19:28:19:701
7.317;-4.002;1.2371;-4.6495;-8.5186;1.4269;1.0728;-0.9788;-0.1614;-0.9134;-0.1985;-0.2559;196.0;-32.94;-8.29;-8.34;39.01;60.28;72.94;0.0;44.239;39.469093;-0.342095;-44.0;NaN;5.13;3.5;190.47;19 / 34;6367;2021-10-20 19:28:19:751
9.158;-3.834;0.8351;-3.7685;-9.0166;0.8188;-1.241;-1.2886;0.4145;-0.118;0.0633;-0.2794;232.0;-32.81;-7.74;-8.64;32.56;66.84;77.74;0.0;44.239;39.469093;-0.342095;-44.0;NaN;5.13;3.5;190.47;19 / 34;6417;2021-10-20 19:28:19:801
10.082;-4.4711;0.3011;-3.9744;-8.9639;0.2682;-1.241;-1.2886;0.4145;-0.118;0.0633;-0.2794;232.0;-32.81;-7.74;-8.64;32.56;66.84;77.74;0.0;44.239;39.469093;-0.342095;-44.0;NaN;5.13;3.5;190.47;19 / 34;6467;2021-10-20 19:28:19:851
11.099;-6.273;1.275;-4.8028;-8.4946;0.972;-1.4895;1.3529;0.1762;-0.3398;0.0485;-0.3585;232.0;-33.11;-5.94;-9.6;24.28;66.04;86.14;0.0;44.239;39.469093;-0.342095;-44.0;NaN;5.13;3.5;190.47;19 / 34;6517;2021-10-20 19:28:19:901
13.526;-7.602;1.998;-4.7645;-8.4803;1.245;-4.4312;3.3749;-0.4443;-0.4058;0.0591;-0.0615;232.0;-33.49;-3.6;-9.54;37.58;59.86;75.36;5.0;44.239;39.469093;-0.342095;-44.0;NaN;5.13;3.5;190.47;19 / 34;6567;2021-10-20 19:28:19:951
12.9491;-1.254;4.77;-0.8859;-9.165;3.3758;-4.4312;3.3749;-0.4443;-0.4058;0.0591;-0.0615;232.0;-33.49;-3.6;-9.54;37.58;59.86;75.36;5.0;44.239;39.469093;-0.342095;-44.0;NaN;5.13;3.5;190.47;19 / 34;6617;2021-10-20 19:28:20:001
8.021;-4.9061;1.9481;-5.0135;-8.1882;1.992;-4.2668;-3.2219;-3.8011;0.3009;0.264;-0.2291;232.0;-33.79;-2.4;-8.51;91.27;69.15;14.7;5.0;46.739;39.469093;-0.342095;-44.0;NaN;5.13;3.5;190.47;19 / 34;6667;2021-10-20 19:28:20:051
8.021;-4.9061;1.9481;-5.0135;-8.1882;1.992;2.1035;2.3509;0.0015;0.9966;0.2441;-0.2661;232.0;-33.79;-2.4;-8.51;91.27;69.15;14.7;5.0;46.739;39.469093;-0.342095;-44.0;NaN;5.13;3.5;190.47;19 / 34;6717;2021-10-20 19:28:20:101
5.993;-5.986;0.236;-6.924;-6.9384;0.2682;2.1035;2.3509;0.0015;0.9966;0.2441;-0.2661;133.0;-34.14;-3.71;-8.21;91.27;69.15;14.7;5.0;46.739;39.469093;-0.342095;-44.0;NaN;5.13;3.5;190.47;19 / 34;6767;2021-10-20 19:28:20:151
8.5781;-3.81;1.6031;-3.9217;-8.8394;1.6424;0.2159;-0.3322;0.5778;0.1712;-0.0234;0.4351;133.0;-34.39;-6.49;-7.26;40.15;64.31;67.28;5.0;46.739;39.469093;-0.342095;-44.0;NaN;5.13;3.5;190.47;19 / 34;6817;2021-10-20 19:28:20:201
6.56;-4.851;2.19;-5.6359;-7.6183;2.5331;1.9432;0.2086;-0.6043;0.0098;-0.1852;0.6517;133.0;-34.39;-6.49;-7.26;40.15;64.31;67.28;5.0;46.739;39.469093;-0.342095;-44.0;NaN;5.13;3.5;190.47;19 / 34;6867;2021-10-20 19:28:20:251
6.087;-5.4379;2.4;-6.2728;-7.0102;2.7677;1.9432;0.2086;-0.6043;0.0098;-0.1852;0.6517;133.0;-34.61;-8.94;-5.04;47.16;50.96;65.8;5.0;46.739;39.469093;-0.342095;-44.0;NaN;5.13;3.5;190.47;19 / 34;6917;2021-10-20 19:28:20:301
6.8291;-5.9021;1.773;-6.292;-7.2832;1.8914;2.3179;0.6286;-0.773;0.7719;-0.0927;0.5352;133.0;-34.69;-10.5;-3.96;50.34;45.64;66.19;5.0;46.739;39.469093;-0.342095;-44.0;NaN;5.13;3.5;190.47;19 / 34;6967;2021-10-20 19:28:20:351
6.8291;-5.9021;1.773;-6.292;-7.2832;1.8914;0.6089;1.4139;0.6375;0.7719;-0.0927;0.5352;133.0;-34.69;-10.5;-3.96;50.34;45.64;66.19;5.0;47.412;39.469093;-0.342095;-44.0;NaN;5.13;3.5;190.47;19 / 34;7016;2021-10-20 19:28:20:400
9.0281;-8.064;1.05;-6.5122;-7.2832;0.8475;-2.0336;2.8195;0.7545;0.4514;-0.2071;0.8445;87.0;-34.91;-11.1;-3.36;22.46;47.96;82.58;5.0;47.412;39.469093;-0.3421;-43.7;NaN;5.27;3.6;183.66;19 / 34;7066;2021-10-20 19:28:20:450
9.7421;-9.3161;1.68;-6.7229;-7.039;1.2115;-2.0336;2.8195;0.7545;-0.0389;-0.3679;0.5584;87.0;-34.91;-11.1;-3.36;22.46;47.96;82.58;5.0;47.412;39.469093;-0.3421;-43.7;NaN;5.27;3.6;183.66;19 / 34;7116;2021-10-20 19:28:20:500
8.688;-3.999;4.9421;-3.6392;-7.9152;4.5011;-0.8957;3.001;-1.265;-0.0389;-0.3679;0.5584;87.0;-35.29;-10.8;-2.76;22.46;47.96;82.58;5.0;47.412;39.469093;-0.3421;-43.7;NaN;5.27;3.6;183.66;19 / 34;7166;2021-10-20 19:28:20:550
9.8711;-1.749;1.4981;-1.6903;-9.5529;1.4365;-2.3489;-4.711;-1.7819;0.6559;-0.117;0.0848;87.0;-34.61;-8.89;-4.01;71.52;53.82;38.96;5.0;47.412;39.469093;-0.3421;-43.7;NaN;5.27;3.6;183.66;19 / 34;7217;2021-10-20 19:28:20:601
7.724;-5.541;-1.747;-5.6168;-7.8434;-1.7717;-0.3618;-0.7521;3.2196;0.7832;-0.1726;-0.8176;87.0;-34.61;-8.89;-4.01;71.52;53.82;38.96;5.0;47.412;39.469093;-0.3421;-43.7;NaN;5.27;3.6;183.66;19 / 34;7267;2021-10-20 19:28:20:651
7.724;-5.541;-1.747;-5.6168;-7.8434;-1.7717;-0.3618;-0.7521;3.2196;0.7832;-0.1726;-0.8176;87.0;-34.5;-7.2;-4.8;346.61;53.1;107.51;5.0;46.023;39.469093;-0.3421;-43.7;NaN;5.27;3.6;183.66;19 / 34;7317;2021-10-20 19:28:20:701
8.676;-3.9941;0.227;-4.1037;-8.9064;0.2251;0.3092;-0.1711;2.9523;-1.4156;-0.3715;-0.7157;87.0;-35.1;-7.44;-4.26;11.68;65.23;86.86;5.0;46.023;39.469093;-0.3421;-43.7;NaN;5.27;3.6;183.66;19 / 34;7367;2021-10-20 19:28:20:751
7.808;-3.7601;2.0291;-4.6591;-8.3175;2.2984;0.6569;-1.0814;-0.9456;-1.4156;-0.3715;-0.7157;88.0;-35.1;-7.44;-4.26;11.68;65.23;86.86;5.0;46.023;39.469093;-0.3421;-43.7;NaN;5.27;3.6;183.66;19 / 34;7417;2021-10-20 19:28:20:801
7.5851;-3.966;0.4331;-4.6064;-8.6574;-0.1245;0.9454;-0.7991;0.5398;-0.6314;-0.1121;-0.1536;88.0;-34.99;-7.44;-6.41;45.28;58.01;63.74;5.0;46.023;39.469093;-0.3421;-43.7;NaN;5.27;3.6;183.66;19 / 34;7467;2021-10-20 19:28:20:851
7.214;-4.387;-0.4399;-4.6064;-8.6574;-0.1245;0.9454;-0.7991;0.5398;-0.18;0.1401;-0.1903;88.0;-34.99;-7.44;-6.41;45.28;58.01;63.74;5.0;46.023;39.469093;-0.3421;-43.7;NaN;5.27;3.6;183.66;19 / 34;7516;2021-10-20 19:28:20:900
9.0071;-5.617;0.378;-5.047;-8.4084;-0.1628;0.9007;-0.0666;1.1146;-0.18;0.1401;-0.1903;88.0;-34.74;-7.61;-8.81;45.28;58.01;63.74;5.0;46.023;39.469093;-0.3421;-43.7;NaN;5.27;3.6;183.66;19 / 34;7566;2021-10-20 19:28:20:950
9.0071;-5.617;0.378;-5.5976;-8.0254;0.6704;0.9007;-0.0666;1.1146;-0.9489;0.1283;0.0587;88.0;-34.5;-8.04;-9.24;30.37;54.91;83.17;5.0;46.023;39.469093;-0.3421;-43.7;NaN;5.27;3.6;183.66;19 / 34;7616;2021-10-20 19:28:21:000
10.304;-6.1151;2.0201;-4.3958;-8.6479;1.4413;-0.7378;1.8394;-0.6874;-0.4452;0.2564;0.1303;88.0;-34.5;-8.04;-9.24;30.37;54.91;83.17;5.0;46.307;39.469093;-0.3421;-43.7;NaN;5.27;3.6;183.66;19 / 34;7666;2021-10-20 19:28:21:050
12.798;-7.4681;1.431;-4.4724;-8.6096;1.4413;-4.3263;2.566;-0.6851;-0.4452;0.2564;0.1303;88.0;-34.44;-6.71;-10.5;41.85;61.86;71.85;5.0;46.307;39.469093;-0.3421;-43.7;NaN;5.27;3.6;183.66;19 / 34;7716;2021-10-20 19:28:21:100
13.5641;-1.754;3.255;-0.6608;-9.414;2.6624;-5.0568;-3.0808;-2.39;-0.2556;0.2978;0.0584;84.0;-34.5;-4.14;-10.74;41.85;61.86;71.85;5.0;46.307;39.469093;-0.3421;-43.7;NaN;5.27;3.6;183.66;19 / 34;7766;2021-10-20 19:28:21:150
9.2321;-4.248;1.79;-0.6608;-9.414;2.6624;-5.0568;-3.0808;-2.39;-0.2556;0.2978;0.0584;84.0;-34.5;-4.14;-10.74;41.85;61.86;71.85;5.0;46.307;39.469093;-0.3421;-43.7;NaN;5.27;3.6;183.66;19 / 34;7817;2021-10-20 19:28:21:201
7.796;-5.591;0.045;-5.4684;-8.0541;1.1684;-0.546;-0.2028;-0.6827;0.1143;0.4547;-0.8001;84.0;-34.5;-3.54;-10.2;35.91;55.23;77.94;5.0;46.307;39.469093;-0.3421;-43.7;NaN;5.27;3.6;183.66;19 / 34;7867;2021-10-20 19:28:21:251
7.796;-5.591;0.045;-4.1372;-8.8298;1.0726;0.111;0.7045;0.88;-0.2585;0.2844;-0.3873;84.0;-34.5;-3.54;-10.2;35.91;55.23;77.94;5.0;46.307;39.469093;-0.3421;-43.7;NaN;5.27;3.6;183.66;19 / 34;7917;2021-10-20 19:28:21:301
8.952;-3.973;1.613;-5.1906;-7.8721;2.6959;0.61;0.0272;-0.7499;-0.2585;0.2844;-0.3873;84.0;-34.5;-5.59;-9.71;36.35;64.17;75.47;5.0;45.626;39.469093;-0.3421;-43.7;NaN;5.27;3.6;183.66;19 / 34;7967;2021-10-20 19:28:21:351
6.228;-5.007;2.3621;-5.1906;-7.8721;2.6959;0.61;0.0272;-0.7499;-0.2023;0.0249;0.4131;84.0;-34.2;-8.21;-9.36;36.35;64.17;75.47;5.0;45.626;39.469093;-0.34211;-43.5;NaN;2.96;3.5;205.09;19 / 34;8016;2021-10-20 19:28:21:400
5.445;-5.627;2.2061;-6.5457;-6.7277;2.8539;3.0624;0.9312;-1.0006;0.7822;0.1048;0.7147;69.0;-34.2;-8.21;-9.36;36.35;64.17;75.47;5.0;45.626;39.469093;-0.34211;-43.5;NaN;2.96;3.5;205.09;19 / 34;8067;2021-10-20 19:28:21:451
6.7541;-6.213;1.182;-6.7756;-6.8522;1.81;1.506;1.1874;0.5331;0.7822;0.1048;0.7147;69.0;-33.84;-10.5;-10.01;52.79;44.33;75.04;5.0;45.626;39.469093;-0.34211;-43.5;NaN;2.96;3.5;205.09;19 / 34;8117;2021-10-20 19:28:21:501
8.9351;-7.8049;1.4621;-6.5074;-7.2927;0.8332;1.506;1.1874;0.5331;0.4337;0.0781;1.0101;69.0;-34.14;-12.19;-9.54;41.48;48.03;82.7;5.0;45.626;39.469093;-0.34211;-43.5;NaN;2.96;3.5;205.09;19 / 34;8166;2021-10-20 19:28:21:550
9.4931;-8.961;2.163;-6.6415;-7.0342;1.5993;-0.9867;2.3346;0.2965;-0.1657;-0.1163;0.5837;69.0;-34.14;-12.19;-9.54;41.48;48.03;82.7;5.0;45.626;39.469093;-0.34211;-43.5;NaN;2.96;3.5;205.09;19 / 34;8216;2021-10-20 19:28:21:600
9.4931;-8.961;2.163;-6.6415;-7.0342;1.5993;-1.7222;3.1811;-0.5005;-0.1657;-0.1163;0.5837;69.0;-34.61;-11.94;-8.76;49.37;45.84;76.46;5.0;49.005;39.469093;-0.34211;-43.5;NaN;2.96;3.5;205.09;19 / 34;8266;2021-10-20 19:28:21:650
8.7581;-3.8269;4.406;-3.5578;-8.169;4.1037;-1.9419;-3.4498;-2.7407;0.3047;0.0287;0.1833;69.0;-34.61;-11.94;-8.76;49.37;45.84;76.46;5.0;49.005;39.469093;-0.34211;-43.5;NaN;2.96;3.5;205.09;19 / 34;8316;2021-10-20 19:28:21:700
9.138;-3.0731;1.6391;-3.0789;-9.165;1.6424;-1.9419;-3.4498;-2.7407;0.3047;0.0287;0.1833;69.0;-34.31;-10.01;-9.71;78.23;56.38;40.92;5.0;49.005;39.469093;-0.34211;-43.5;NaN;2.96;3.5;205.09;19 / 34;8367;2021-10-20 19:28:21:751
7.8911;-4.911;-1.4501;-4.4149;-8.6766;-1.1732;-0.8299;-1.3381;1.6394;0.6406;0.0677;-0.6039;71.0;-34.61;-9.0;-10.2;78.23;56.38;40.92;5.0;49.005;39.469093;-0.34211;-43.5;NaN;2.96;3.5;205.09;19 / 34;8416;2021-10-20 19:28:21:800
8.418;-3.6019;1.2251;-4.4149;-8.6766;-1.1732;-0.5839;-1.3986;1.6404;-0.8456;-0.2108;-0.9409;71.0;-34.61;-9.0;-10.2;78.23;56.38;40.92;5.0;49.005;39.469093;-0.34211;-43.5;NaN;2.96;3.5;205.09;19 / 34;8466;2021-10-20 19:28:21:850
6.9461;-3.9079;1.6421;-4.0031;-8.7484;1.9154;-0.5839;-1.3986;1.6404;-0.8456;-0.2108;-0.9409;71.0;-34.91;-9.49;-10.44;50.01;63.1;64.43;5.0;49.005;39.469093;-0.34211;-43.5;NaN;2.96;3.5;205.09;19 / 34;8516;2021-10-20 19:28:21:900
6.9461;-3.9079;1.6421;-5.114;-8.2025;1.6616;1.5033;-0.9261;-0.3089;-0.8926;-0.1544;-0.4051;71.0;-34.01;-9.3;-12.36;49.07;56.75;72.0;5.0;49.005;39.469093;-0.34211;-43.5;NaN;2.96;3.5;205.09;19 / 34;8566;2021-10-20 19:28:21:950
7.044;-4.342;0.6791;-4.4005;-8.7436;0.6369;0.6359;-0.746;0.6913;-0.1412;0.1491;-0.1275;71.0;-34.01;-9.3;-12.36;49.07;56.75;72.0;5.0;44.345;39.469093;-0.34211;-43.5;NaN;2.96;3.5;205.09;19 / 34;8616;2021-10-20 19:28:22:000
9.213;-3.6949;0.6191;-3.9313;-8.9735;0.3974;0.6359;-0.746;0.6913;-0.1412;0.1491;-0.1275;71.0;-33.24;-8.64;-13.91;38.64;63.05;81.77;5.0;44.345;39.469093;-0.34211;-43.5;NaN;2.96;3.5;205.09;19 / 34;8666;2021-10-20 19:28:22:050
9.8111;-5.979;0.7301;-5.0901;-8.3127;1.0678;-0.9472;-0.5104;0.8457;-0.7492;0.0935;-0.1937;71.0;-33.24;-8.64;-13.91;38.64;63.05;81.77;5.0;44.345;39.469093;-0.34211;-43.5;NaN;2.96;3.5;205.09;19 / 34;8717;2021-10-20 19:28:22:101
12.092;-4.988;2.2541;-5.0901;-8.3127;1.0678;-2.3488;1.1077;-0.9108;-0.7492;0.0935;-0.1937;79.0;-33.49;-7.61;-13.8;44.69;57.97;78.15;5.0;44.345;39.469093;-0.34211;-43.5;NaN;2.96;3.5;205.09;19 / 34;8767;2021-10-20 19:28:22:151
11.6951;-6.1489;1.5071;-3.9887;-8.8873;1.154;-2.3488;1.1077;-0.9108;-0.5657;0.1942;-0.2248;79.0;-33.49;-6.41;-13.31;44.69;57.97;78.15;5.0;44.345;39.469093;-0.34211;-43.5;NaN;2.96;3.5;205.09;19 / 34;8817;2021-10-20 19:28:22:201
11.6951;-6.1489;1.5071;-3.3232;-9.0261;1.9106;-3.0573;1.5987;-0.4675;-0.2665;0.2089;-0.1159;79.0;-33.49;-6.41;-13.31;44.69;57.97;78.15;0.0;44.345;39.469093;-0.34211;-43.5;NaN;2.96;3.5;205.09;19 / 34;8867;2021-10-20 19:28:22:251
13.1171;-1.8761;2.001;-2.332;-9.4715;0.996;-4.4124;-2.5136;-0.8792;-0.2665;0.2089;-0.1159;79.0;-33.49;-5.21;-12.54;56.4;66.99;60.1;0.0;45.557;39.469093;-0.34211;-43.5;NaN;2.96;3.5;205.09;19 / 34;8917;2021-10-20 19:28:22:301
9.959;-5.9981;1.146;-4.8171;-8.4132;1.4605;-1.1199;1.9031;0.0216;-0.2892;0.2542;-0.5933;79.0;-33.71;-5.64;-10.61;42.69;59.11;73.13;0.0;45.557;39.469093;-0.34211;-43.5;NaN;2.96;3.5;205.09;19 / 34;8967;2021-10-20 19:28:22:351
9.885;-5.043;2.4;-4.5777;-8.2648;2.6336;-0.9636;1.1319;-1.1754;0.1829;0.041;-0.2515;79.0;-33.71;-5.64;-10.61;42.69;59.11;73.13;0.0;45.557;39.469093;-0.34211;-43.5;NaN;2.96;3.5;205.09;19 / 34;9017;2021-10-20 19:28:22:401
6.668;-5.73;3.0041;-4.5777;-8.2648;2.6336;-0.9636;1.1319;-1.1754;0.1829;0.041;-0.2515;65.0;-33.24;-7.8;-8.81;56.57;57.42;60.09;5.0;45.557;39.469227;-0.342068;-20.2;NaN;3.32;6.5;180.92;19 / 34;9067;2021-10-20 19:28:22:451
4.796;-5.732;1.9841;-6.9767;-6.2824;2.8395;3.0548;1.5792;-1.2462;1.1699;-0.113;0.8668;65.0;-33.24;-7.8;-8.81;56.57;57.42;60.09;5.0;45.557;39.469227;-0.342068;-20.2;NaN;3.32;6.5;180.92;19 / 34;9116;2021-10-20 19:28:22:500
4.796;-5.732;1.9841;-7.6136;-5.8945;1.8627;3.0548;1.5792;-1.2462;1.1699;-0.113;0.8668;65.0;-32.1;-10.91;-8.64;56.57;57.42;60.09;5.0;45.557;39.469227;-0.342068;-20.2;NaN;3.32;6.5;180.92;19 / 34;9166;2021-10-20 19:28:22:550
4.667;-5.809;1.2731;-6.9288;-6.8331;1.2402;3.8613;0.9536;0.3717;1.0098;-0.067;1.4304;65.0;-31.2;-13.8;-8.16;69.15;36.94;76.25;5.0;45.557;39.469227;-0.342068;-20.2;NaN;3.32;6.5;180.92;19 / 34;9216;2021-10-20 19:28:22:600
6.534;-6.697;0.7511;-6.9288;-6.8331;1.2402;1.2282;1.0029;1.1889;0.3154;-0.1312;1.26;65.0;-31.2;-13.8;-8.16;69.15;36.94;76.25;5.0;46.8;39.469227;-0.342068;-20.2;NaN;3.32;6.5;180.92;19 / 34;9266;2021-10-20 19:28:22:650
7.913;-7.736;1.5311;-7.1299;-6.6559;1.0056;-0.4491;1.5995;0.253;0.3154;-0.1312;1.26;65.0;-31.44;-14.64;-6.96;69.15;36.94;76.25;5.0;46.8;39.469227;-0.342068;-20.2;NaN;3.32;6.5;180.92;19 / 34;9316;2021-10-20 19:28:22:700
9.0401;-7.8701;1.965;-6.3542;-7.3023;1.585;-0.4491;1.5995;0.253;-0.0857;-0.3343;0.5709;65.0;-32.29;-13.39;-5.81;45.45;48.11;75.99;5.0;46.8;39.469227;-0.342068;-20.2;NaN;3.32;6.5;180.92;19 / 34;9366;2021-10-20 19:28:22:750
10.0601;-4.05;4.535;-3.3806;-8.3941;3.7781;-1.7049;1.542;-0.3473;0.3686;-0.2493;0.0481;67.0;-32.29;-13.39;-5.81;45.45;48.11;75.99;5.0;46.8;39.469227;-0.342068;-20.2;NaN;3.32;6.5;180.92;19 / 34;9417;2021-10-20 19:28:22:801
10.0601;-4.05;4.535;-3.3806;-8.3941;3.7781;-3.1529;-2.452;-2.5748;0.3686;-0.2493;0.0481;67.0;-33.0;-10.61;-5.94;71.94;58.87;41.82;5.0;46.8;39.469227;-0.342068;-20.2;NaN;3.32;6.5;180.92;19 / 34;9467;2021-10-20 19:28:22:851
9.627;-4.8041;1.752;-4.3191;-8.6622;1.5706;-3.1529;-2.452;-2.5748;0.8614;-0.114;-0.628;67.0;-33.0;-10.61;-5.94;71.94;58.87;41.82;5.0;46.8;39.469227;-0.342068;-20.2;NaN;3.32;6.5;180.92;19 / 34;9516;2021-10-20 19:28:22:900
8.712;-3.525;0.105;-3.6727;-9.0932;0.1006;-1.2861;-1.5397;1.8856;0.8614;-0.114;-0.628;67.0;-33.54;-7.61;-7.14;71.94;58.87;41.82;5.0;45.407;39.469227;-0.342068;-20.2;NaN;3.32;6.5;180.92;19 / 34;9566;2021-10-20 19:28:22:950
8.2931;-2.3021;-0.162;-3.1939;-9.2703;-0.1006;-0.0725;-2.7474;1.9648;0.1231;-0.2639;-1.027;67.0;-33.71;-5.04;-7.26;15.06;68.0;88.43;5.0;45.407;39.469227;-0.342068;-20.2;NaN;3.32;6.5;180.92;19 / 34;9616;2021-10-20 19:28:23:000
7.077;-3.7841;1.1891;-3.1939;-9.2703;-0.1006;-0.0725;-2.7474;1.9648;-1.2577;-0.2365;-0.9487;67.0;-33.71;-5.04;-7.26;15.06;68.0;88.43;0.0;45.407;39.469227;-0.342068;-20.2;NaN;3.32;6.5;180.92;19 / 34;9667;2021-10-20 19:28:23:051
8.82;-3.791;0.926;-4.5729;-8.4946;1.7669;1.4344;-0.921;0.1683;-1.2577;-0.2365;-0.9487;67.0;-33.41;-3.9;-7.56;15.06;68.0;88.43;0.0;45.407;39.469227;-0.342068;-20.2;NaN;3.32;6.5;180.92;19 / 34;9717;2021-10-20 19:28:23:101
9.4421;-5.163;1.3091;-3.9887;-8.9208;0.838;-0.2611;-0.3354;0.1731;-0.8243;-0.0375;-0.5763;77.0;-33.6;-3.54;-8.4;28.67;65.44;78.14;0.0;45.407;39.469227;-0.342068;-20.2;NaN;3.32;6.5;180.92;19 / 34;9766;2021-10-20 19:28:23:150
9.4421;-5.163;1.3091;-5.0518;-8.3127;1.221;-0.2611;-0.3354;0.1731;0.0648;0.0848;0.0659;77.0;-33.6;-3.54;-8.4;28.67;65.44;78.14;0.0;45.407;39.469227;-0.342068;-20.2;NaN;3.32;6.5;180.92;19 / 34;9816;2021-10-20 19:28:23:200
10.584;-5.809;1.905;-4.2713;-8.7484;1.1636;-1.2566;1.8931;-0.6268;0.0648;0.0848;0.0659;77.0;-33.6;-2.81;-8.94;34.19;57.99;76.41;0.0;45.407;39.469227;-0.342068;-20.2;NaN;3.32;6.5;180.92;19 / 34;9866;2021-10-20 19:28:23:250
12.822;-8.617;1.029;-4.9799;-8.3366;1.3886;-4.3282;3.0717;0.0975;-0.1633;0.1035;0.1341;77.0;-33.6;-2.81;-8.94;34.19;57.99;76.41;5.0;45.468;39.469227;-0.342068;-20.2;NaN;3.32;6.5;180.92;19 / 34;9917;2021-10-20 19:28:23:301
13.919;-1.864;3.71;-1.0822;-9.3326;2.8156;-5.2624;-2.6351;-2.5581;0.0385;0.1755;-0.1561;77.0;-33.19;-1.91;-9.0;36.26;58.2;74.42;5.0;45.468;39.469227;-0.342068;-20.2;NaN;3.32;6.5;180.92;19 / 34;9967;2021-10-20 19:28:23:351
8.9711;-5.512;1.946;-1.0822;-9.3326;2.8156;-5.2624;-2.6351;-2.5581;0.0385;0.1755;-0.1561;77.0;-33.41;-1.09;-8.21;83.47;72.09;21.02;5.0;45.468;39.469227;-0.342068;-20.2;NaN;3.32;6.5;180.92;19 / 34;10016;2021-10-20 19:28:23:400
8.09;-5.591;1.5221;-6.2153;-7.3885;1.7095;-0.2259;1.2444;-0.6246;0.5037;0.1717;-0.2291;77.0;-33.41;-1.09;-8.21;83.47;72.09;21.02;5.0;45.468;39.469227;-0.342068;-20.2;NaN;3.32;6.5;180.92;19 / 34;10066;2021-10-20 19:28:23:450
8.09;-5.591;1.5221;-5.1667;-8.1786;1.5945;0.6905;1.4711;0.0324;0.5037;0.1717;-0.2291;77.0;-34.2;-2.94;-7.5;38.37;48.9;74.62;5.0;45.468;39.469227;-0.342068;-20.2;NaN;3.32;6.5;180.92;19 / 34;10117;2021-10-20 19:28:23:501
6.884;-5.131;1.883;-6.2297;-7.2209;2.2841;2.4413;0.901;-0.2763;0.4931;-4.0E-4;0.3615;77.0;-34.5;-6.6;-6.71;38.37;48.9;74.62;5.0;45.468;39.469227;-0.342068;-20.2;NaN;3.32;6.5;180.92;19 / 34;10167;2021-10-20 19:28:23:551
5.318;-5.447;2.087;-6.9001;-6.4931;2.5283;2.4413;0.901;-0.2763;0.3856;-0.1074;0.9395;77.0;-34.5;-6.6;-6.71;38.37;48.9;74.62;5.0;46.231;39.469227;-0.342068;-20.2;NaN;3.32;6.5;180.92;19 / 34;10216;2021-10-20 19:28:23:600
5.115;-5.55;1.575;-6.9432;-6.6224;2.0303;3.1691;0.6489;-0.2906;0.3856;-0.1074;0.9395;77.0;-33.9;-9.84;-6.0;54.69;41.46;69.88;5.0;46.231;39.469227;-0.342068;-20.2;NaN;3.32;6.5;180.92;19 / 34;10266;2021-10-20 19:28:23:650
6.053;-6.4909;1.3691;-6.9432;-6.6224;2.0303;2.7123;0.2754;0.2036;0.4142;-0.021;1.0737;77.0;-33.9;-9.84;-6.0;54.69;41.46;69.88;5.0;46.231;39.469227;-0.342068;-20.2;NaN;3.32;6.5;180.92;19 / 34;10317;2021-10-20 19:28:23:701
8.234;-7.872;1.244;-7.1156;-6.6607;1.1109;0.1738;2.0297;0.8025;0.0095;-0.1585;0.9224;77.0;-33.84;-11.51;-5.04;54.69;41.46;69.88;5.0;46.231;39.469227;-0.342068;-20.2;NaN;3.32;6.5;180.92;19 / 34;10367;2021-10-20 19:28:23:751
8.234;-7.872;1.244;-6.3207;-7.4268;1.0439;0.1738;2.0297;0.8025;0.0095;-0.1585;0.9224;94.0;-34.5;-10.61;-4.01;28.16;49.22;80.62;5.0;46.231;39.469227;-0.342068;-20.2;NaN;3.32;6.5;180.92;19 / 34;10416;2021-10-20 19:28:23:800
9.2651;-9.0;1.7471;-6.0573;-7.3694;2.2745;-2.3156;2.7046;0.3844;-0.1041;-0.2915;0.4784;94.0;-34.5;-10.61;-4.01;28.16;49.22;80.62;5.0;46.231;39.469227;-0.342068;-20.2;NaN;3.32;6.5;180.92;19 / 34;10466;2021-10-20 19:28:23:850
11.384;-3.8171;4.748;-6.0573;-7.3694;2.2745;-2.3156;2.7046;0.3844;-0.1041;-0.2915;0.4784;94.0;-35.4;-8.51;-4.44;42.31;48.72;69.42;5.0;44.371;39.469227;-0.342068;-20.2;NaN;3.32;6.5;180.92;19 / 34;10517;2021-10-20 19:28:23:901
9.512;-3.8629;2.118;-2.4756;-8.8633;3.3854;-4.3712;-3.2523;-3.4098;0.821;-0.1244;-0.6097;94.0;-35.94;-5.81;-5.04;42.31;48.72;69.42;5.0;44.371;39.469227;-0.342068;-20.2;NaN;3.32;6.5;180.92;19 / 34;10567;2021-10-20 19:28:23:951
7.3601;-3.8921;-1.017;-4.8507;-8.5042;-0.5507;0.2751;-1.2319;2.5782;0.821;-0.1244;-0.6097;94.0;-35.94;-5.81;-5.04;42.31;48.72;69.42;5.0;44.371;39.469227;-0.342068;-20.2;NaN;3.32;6.5;180.92;19 / 34;10617;2021-10-20 19:28:24:001
7.7501;-2.637;-0.998;-3.2322;-9.165;-1.3408;0.4529;-2.3174;3.1086;0.6193;-0.2586;-0.9808;94.0;-36.3;-4.44;-5.46;1.76;60.14;96.48;5.0;44.371;39.469227;-0.342068;-20.2;NaN;3.32;6.5;180.92;19 / 34;10666;2021-10-20 19:28:24:050
7.7501;-2.637;-0.998;-4.2473;-8.8394;-0.067;0.4529;-2.3174;3.1086;-1.7801;-0.3322;-0.7045;94.0;-36.3;-4.44;-5.46;1.76;60.14;96.48;0.0;44.371;39.469227;-0.342068;-20.2;NaN;3.32;6.5;180.92;19 / 34;10716;2021-10-20 19:28:24:100
7.5611;-3.9799;0.9;-4.3479;-8.6239;1.7142;1.1076;-1.3309;1.3856;-1.7801;-0.3322;-0.7045;99.0;-36.6;-4.5;-6.54;11.44;64.33;90.9;0.0;44.371;39.469242;-0.342135;-17.5;NaN;5.06;5.4;202.77;19 / 34;10767;2021-10-20 19:28:24:151
8.7;-4.2791;1.5;-4.7836;-8.5042;0.9768;-0.0797;-0.3554;-0.7372;-1.1924;-0.0877;-0.4638;99.0;-36.41;-4.61;-7.8;11.44;64.33;90.9;0.0;44.371;39.469242;-0.342135;-17.5;NaN;5.06;5.4;202.77;19 / 34;10817;2021-10-20 19:28:24:201
8.5331;-5.4641;1.034;-4.7836;-8.5042;0.9768;-0.0797;-0.3554;-0.7372;0.0528;0.1563;-0.026;99.0;-36.41;-4.61;-7.8;11.44;64.33;90.9;0.0;44.152;39.469242;-0.342135;-17.5;NaN;5.06;5.4;202.77;19 / 34;10867;2021-10-20 19:28:24:251
9.885;-6.9341;1.625;-6.2776;-7.3263;1.7621;0.4156;1.7787;-0.7308;0.0528;0.1563;-0.026;99.0;-35.81;-4.39;-8.81;40.66;48.33;74.32;0.0;44.152;39.469242;-0.342135;-17.5;NaN;5.06;5.4;202.77;19 / 34;10917;2021-10-20 19:28:24:301
13.088;-8.399;0.83;-5.047;-8.4132;0.0575;-4.0944;2.2384;0.3524;-0.1177;0.206;0.2916;99.0;-35.64;-3.19;-9.3;17.84;59.04;89.35;5.0;44.152;39.469242;-0.342135;-17.5;NaN;5.06;5.4;202.77;19 / 34;10966;2021-10-20 19:28:24:350
14.594;-0.78;3.983;-1.901;-9.347;2.2889;-4.6421;1.2023;-1.6018;-0.2148;0.2351;-0.0635;99.0;-35.64;-3.19;-9.3;17.84;59.04;89.35;5.0;44.152;39.469242;-0.342135;-17.5;NaN;5.06;5.4;202.77;19 / 34;11017;2021-10-20 19:28:24:401
14.594;-0.78;3.983;-1.901;-9.347;2.2889;-4.6421;1.2023;-1.6018;-0.2148;0.2351;-0.0635;90.0;-35.89;-1.44;-8.7;17.84;59.04;89.35;5.0;44.152;39.469242;-0.342135;-17.5;NaN;5.06;5.4;202.77;19 / 34;11066;2021-10-20 19:28:24:450
8.313;-5.45;1.383;-5.3247;-8.1211;1.3455;-1.8475;-0.9194;-1.2468;0.0136;0.2871;-0.7043;90.0;-35.89;-1.44;-8.7;17.84;59.04;89.35;5.0;44.152;39.469242;-0.342135;-17.5;NaN;5.06;5.4;202.77;19 / 34;11116;2021-10-20 19:28:24:500
8.7311;-4.923;0.962;-4.7932;-8.509;0.929;1.057;1.7001;0.5468;0.0136;0.2871;-0.7043;90.0;-36.19;-1.99;-7.31;30.62;55.93;75.82;5.0;45.384;39.469242;-0.342135;-17.5;NaN;5.06;5.4;202.77;19 / 34;11166;2021-10-20 19:28:24:550
8.1431;-4.705;1.632;-4.8363;-8.3653;1.6664;-0.129;0.2669;0.0292;0.2758;0.0833;-0.2273;90.0;-36.3;-5.29;-5.81;35.1;58.55;70.99;5.0;45.384;39.469242;-0.342135;-17.5;NaN;5.06;5.4;202.77;19 / 34;11216;2021-10-20 19:28:24:600
5.526;-5.486;2.0411;-4.8363;-8.3653;1.6664;-0.129;0.2669;0.0292;0.2802;-0.1925;0.6358;90.0;-36.3;-5.29;-5.81;35.1;58.55;70.99;5.0;45.384;39.469242;-0.342135;-17.5;NaN;5.06;5.4;202.77;19 / 34;11266;2021-10-20 19:28:24:650
5.112;-5.7611;2.2691;-6.7708;-6.5218;2.7964;3.0935;0.9874;-0.6506;0.2802;-0.1925;0.6358;90.0;-35.64;-8.94;-5.04;52.42;41.68;67.56;5.0;45.384;39.469242;-0.342135;-17.5;NaN;5.06;5.4;202.77;19 / 34;11316;2021-10-20 19:28:24:700
5.112;-5.7611;2.2691;-6.9049;-6.45;2.6384;3.2734;0.8866;-0.7451;0.8059;-0.056;1.0416;90.0;-35.1;-12.0;-5.46;52.42;41.68;67.56;5.0;45.384;39.469242;-0.342135;-17.5;NaN;5.06;5.4;202.77;19 / 34;11366;2021-10-20 19:28:24:750
6.2561;-6.015;1.5551;-6.9575;-6.7947;1.2641;1.7619;0.6294;0.1902;0.5199;0.0477;1.0413;97.0;-35.1;-12.0;-5.46;52.42;41.68;67.56;5.0;45.384;39.469242;-0.342135;-17.5;NaN;5.06;5.4;202.77;19 / 34;11416;2021-10-20 19:28:24:800
7.6301;-7.721;1.3931;-6.9575;-6.7947;1.2641;1.7619;0.6294;0.1902;0.5199;0.0477;1.0413;97.0;-35.1;-13.74;-5.7;43.04;43.86;79.7;5.0;44.216;39.469242;-0.342135;-17.5;NaN;5.06;5.4;202.77;19 / 34;11466;2021-10-20 19:28:24:850
9.165;-9.282;1.1921;-6.5218;-7.2736;0.8667;-1.0266;1.801;0.488;-0.1426;-0.1336;0.5596;97.0;-35.1;-13.74;-5.7;43.04;43.86;79.7;5.0;44.216;39.469242;-0.342135;-17.5;NaN;5.06;5.4;202.77;19 / 34;11516;2021-10-20 19:28:24:900
10.3301;-3.915;4.287;-5.4109;-7.6662;2.8539;-1.0018;2.5877;-0.3075;-0.1426;-0.1336;0.5596;97.0;-35.34;-13.09;-4.91;30.07;47.87;82.43;5.0;44.216;39.469242;-0.342135;-17.5;NaN;5.06;5.4;202.77;19 / 34;11566;2021-10-20 19:28:24:950
10.139;-3.2621;2.352;-1.403;-9.1315;3.2896;-4.2651;-3.9306;-3.1064;0.0776;-0.0528;0.0602;97.0;-35.7;-9.6;-5.64;82.98;68.61;23.1;5.0;44.216;39.469242;-0.342135;-17.5;NaN;5.06;5.4;202.77;19 / 34;11617;2021-10-20 19:28:25:001
10.139;-3.2621;2.352;-1.403;-9.1315;3.2896;-4.2651;-3.9306;-3.1064;0.6333;-0.0056;-0.8254;97.0;-35.7;-9.6;-5.64;82.98;68.61;23.1;5.0;44.216;39.469242;-0.342135;-17.5;NaN;5.06;5.4;202.77;19 / 34;11667;2021-10-20 19:28:25:051
7.98;-4.713;-0.6049;-4.9799;-8.4228;-0.6321;0.0915;-0.4562;1.977;0.6333;-0.0056;-0.8254;97.0;-36.3;-7.14;-6.9;4.95;59.21;97.23;5.0;44.216;39.469242;-0.342135;-17.5;NaN;5.06;5.4;202.77;19 / 34;11717;2021-10-20 19:28:25:101
8.4131;-3.171;-0.035;-3.4524;-9.1794;-0.0287;-0.4058;-1.6285;2.3527;-0.3791;-0.2199;-1.0513;93.0;-36.49;-6.79;-6.96;12.09;69.39;90.48;0.0;44.216;39.469257;-0.34211;-0.4;NaN;3.84;3.9;202.54;20 / 34;11766;2021-10-20 19:28:25:150
7.319;-3.6979;1.206;-4.3718;-8.6622;1.4222;1.1136;-1.1486;0.113;-1.2248;-0.1782;-0.4364;93.0;-36.49;-6.79;-6.96;12.09;69.39;90.48;0.0;43.222;39.469257;-0.34211;-0.4;NaN;3.84;3.9;202.54;20 / 34;11816;2021-10-20 19:28:25:200
7.6661;-4.5551;1.139;-4.9704;-8.3653;1.2354;1.1136;-1.1486;0.113;-1.2248;-0.1782;-0.4364;93.0;-36.3;-6.54;-7.91;12.09;69.39;90.48;0.0;43.222;39.469257;-0.34211;-0.4;NaN;3.84;3.9;202.54;20 / 34;11866;2021-10-20 19:28:25:250
8.691;-4.854;0.39;-4.774;-8.5569;0.3735;0.3814;-0.3862;0.4152;-0.4232;0.062;-0.2805;93.0;-36.3;-6.54;-7.91;12.09;69.39;90.48;0.0;43.222;39.469257;-0.34211;-0.4;NaN;3.84;3.9;202.54;20 / 34;11916;2021-10-20 19:28:25:300
8.691;-4.854;0.39;-4.774;-8.5569;0.3735;-0.3664;0.9411;0.4021;-0.4232;0.062;-0.2805;93.0;-35.64;-6.49;-9.6;24.76;60.77;85.53;5.0;43.222;39.469257;-0.34211;-0.4;NaN;3.84;3.9;202.54;20 / 34;11966;2021-10-20 19:28:25:350
9.8351;-6.618;0.9431;-5.4492;-8.1163;0.7757;-0.3664;0.9411;0.4021;-0.353;0.1393;0.1401;93.0;-35.21;-5.81;-9.9;31.56;55.86;81.9;5.0;43.222;39.469257;-0.34211;-0.4;NaN;3.84;3.9;202.54;20 / 34;12017;2021-10-20 19:28:25:401
13.7051;-8.0539;0.902;-4.9608;-8.442;0.5555;-4.5253;2.2062;-0.3302;-0.5181;0.1415;0.0905;89.0;-35.21;-5.81;-9.9;31.56;55.86;81.9;5.0;43.222;39.469257;-0.34211;-0.4;NaN;3.84;3.9;202.54;20 / 34;12066;2021-10-20 19:28:25:450
12.537;-3.276;2.391;-2.4325;-9.3326;1.7765;-4.0172;-1.5212;-1.52;-0.5181;0.1415;0.0905;89.0;-35.34;-4.61;-9.11;25.82;59.4;83.61;5.0;45.677;39.469257;-0.34211;-0.4;NaN;3.84;3.9;202.54;20 / 34;12117;2021-10-20 19:28:25:501
9.0671;-3.6709;2.0441;-3.6009;-8.8969;2.0063;-4.0172;-1.5212;-1.52;-0.1781;0.2343;-0.3737;89.0;-35.1;-4.01;-9.36;48.43;65.14;60.87;5.0;45.677;39.469257;-0.34211;-0.4;NaN;3.84;3.9;202.54;20 / 34;12166;2021-10-20 19:28:25:550
5.9141;-5.9;0.6101;-6.9097;-6.924;0.7039;1.4603;0.6574;-0.2878;0.2259;0.2354;-0.378;89.0;-35.1;-4.01;-9.36;48.43;65.14;60.87;5.0;45.677;39.469257;-0.34211;-0.4;NaN;3.84;3.9;202.54;20 / 34;12216;2021-10-20 19:28:25:600
7.994;-3.939;1.788;-6.9097;-6.924;0.7039;1.4603;0.6574;-0.2878;0.2259;0.2354;-0.378;89.0;-34.69;-5.34;-9.71;33.58;44.91;84.18;5.0;45.677;39.469257;-0.34211;-0.4;NaN;3.84;3.9;202.54;20 / 34;12266;2021-10-20 19:28:25:650
7.994;-3.939;1.788;-4.2521;-8.6239;1.9297;0.9779;-0.0727;0.0042;0.1737;0.089;0.3284;89.0;-34.69;-5.34;-9.71;33.58;44.91;84.18;5.0;45.677;39.469257;-0.34211;-0.4;NaN;3.84;3.9;202.54;20 / 34;12317;2021-10-20 19:28:25:701
7.4171;-4.5161;2.664;-4.8746;-8.011;2.873;0.766;-0.2646;-1.3742;0.2786;0.0346;0.4272;89.0;-34.31;-7.01;-8.16;33.58;44.91;84.18;5.0;45.677;39.469257;-0.34211;-0.4;NaN;3.84;3.9;202.54;20 / 34;12367;2021-10-20 19:28:25:751
6.783;-5.6651;2.451;-6.0525;-7.264;2.6097;1.6595;0.9043;-0.905;0.2786;0.0346;0.4272;97.0;-34.2;-8.81;-6.71;52.94;47.78;66.68;5.0;45.677;39.469257;-0.34211;-0.4;NaN;3.84;3.9;202.54;20 / 34;12417;2021-10-20 19:28:25:801
6.9101;-5.737;2.156;-6.0908;-7.3358;2.2841;1.3864;0.8178;-0.3512;0.8718;0.0452;0.4982;97.0;-34.2;-8.81;-6.71;52.94;47.78;66.68;5.0;44.612;39.469257;-0.34211;-0.4;NaN;3.84;3.9;202.54;20 / 34;12467;2021-10-20 19:28:25:851
8.1311;-7.8049;1.3421;-6.7516;-7.0198;1.154;1.3864;0.8178;-0.3512;0.8718;0.0452;0.4982;97.0;-34.09;-10.74;-6.24;49.59;48.44;69.44;5.0;44.612;39.469257;-0.34211;-0.4;NaN;3.84;3.9;202.54;20 / 34;12517;2021-10-20 19:28:25:901
9.9791;-8.466;1.397;-6.3063;-7.4364;1.0343;-0.0558;2.5656;0.5964;0.3156;-0.1174;0.8433;97.0;-33.6;-10.69;-6.0;36.77;45.7;80.3;5.0;44.612;39.469257;-0.34211;-0.4;NaN;3.84;3.9;202.54;20 / 34;12566;2021-10-20 19:28:25:950
9.9791;-8.466;1.397;-6.3063;-7.4364;1.0343;-1.6993;2.6562;0.6484;-0.1438;-0.2468;0.5338;97.0;-33.6;-10.69;-6.0;36.77;45.7;80.3;5.0;44.612;39.469257;-0.34211;-0.4;NaN;3.84;3.9;202.54;20 / 34;12617;2021-10-20 19:28:26:001
8.952;-5.457;2.757;-4.9321;-8.102;2.49;-1.4817;-1.7886;-1.821;-0.1438;-0.2468;0.5338;97.0;-33.3;-10.09;-6.36;50.85;55.71;63.21;5.0;44.612;39.469257;-0.34211;-0.4;NaN;3.84;3.9;202.54;20 / 34;12667;2021-10-20 19:28:26:051
9.0671;-2.8121;2.946;-2.7725;-8.9495;2.9066;-1.4817;-1.7886;-1.821;0.2372;-0.092;-0.1121;97.0;-33.3;-10.09;-6.36;50.85;55.71;63.21;5.0;44.612;39.469257;-0.34211;-0.4;NaN;3.84;3.9;202.54;20 / 34;12717;2021-10-20 19:28:26:101
7.247;-4.5641;-0.2839;-5.2241;-8.2935;-0.3112;-0.3808;-1.9986;0.2027;0.4087;-0.038;-0.5486;99.0;-33.3;-8.51;-7.8;50.85;55.71;63.21;5.0;43.72;39.46926;-0.342132;5.3;NaN;3.64;3.3;222.97;21 / 34;12767;2021-10-20 19:28:26:151
7.247;-4.5641;-0.2839;-5.2241;-8.2935;-0.3112;1.0052;-0.9203;3.1413;0.4087;-0.038;-0.5486;99.0;-33.41;-7.69;-8.7;16.28;57.75;93.41;5.0;43.72;39.46926;-0.342132;5.3;NaN;3.64;3.3;222.97;21 / 34;12817;2021-10-20 19:28:26:201
7.5131;-3.612;-0.8659;-4.2282;-8.7915;-1.0056;1.0052;-0.9203;3.1413;-0.9514;-0.1096;-0.6626;99.0;-33.41;-7.69;-8.7;16.28;57.75;93.41;5.0;43.72;39.46926;-0.342132;5.3;NaN;3.64;3.3;222.97;21 / 34;12867;2021-10-20 19:28:26:251
7.731;-3.789;1.158;-4.707;-8.4467;1.6472;0.6275;-1.4937;0.4332;-1.324;-0.1544;-0.2903;99.0;-33.3;-8.29;-8.4;0.31;63.69;103.38;5.0;43.72;39.46926;-0.342132;5.3;NaN;3.64;3.3;222.97;21 / 34;12916;2021-10-20 19:28:26:300
8.0591;-4.7269;1.4381;-4.4772;-8.6526;1.1205;0.7453;-0.2575;-0.8967;-1.324;-0.1544;-0.2903;99.0;-33.54;-7.99;-8.81;0.31;63.69;103.38;5.0;43.72;39.46926;-0.342132;5.3;NaN;3.64;3.3;222.97;21 / 34;12966;2021-10-20 19:28:26:350
9.663;-4.612;0.8111;-4.4772;-8.6526;1.1205;0.7453;-0.2575;-0.8967;-0.0367;0.1459;-0.2579;99.0;-33.54;-7.99;-8.81;0.31;63.69;103.38;5.0;43.72;39.46926;-0.342132;5.3;NaN;3.64;3.3;222.97;21 / 34;13016;2021-10-20 19:28:26:400
10.0931;-6.1219;1.436;-4.6543;-8.6;0.747;-1.1557;-0.2184;0.0016;0.0417;0.1467;-0.0692;111.0;-33.54;-6.71;-9.54;31.73;61.27;80.88;5.0;47.97;39.46926;-0.342132;5.3;NaN;3.64;3.3;222.97;21 / 34;13066;2021-10-20 19:28:26:450
10.0931;-6.1219;1.436;-4.4101;-8.6766;1.1875;-3.1338;1.1634;-0.688;0.0417;0.1467;-0.0692;111.0;-33.54;-6.71;-9.54;31.73;61.27;80.88;5.0;47.97;39.46926;-0.342132;5.3;NaN;3.64;3.3;222.97;21 / 34;13116;2021-10-20 19:28:26:500
13.1981;-7.9609;0.885;-4.6878;-8.5281;1.2163;-3.1338;1.1634;-0.688;-0.2095;0.1293;-0.1127;111.0;-33.49;-5.29;-10.2;31.73;61.27;80.88;5.0;47.97;39.46926;-0.342132;5.3;NaN;3.64;3.3;222.97;21 / 34;13166;2021-10-20 19:28:26:550
13.469;-1.515;3.4151;-0.3735;-9.3805;2.8443;-4.2511;-0.5131;-1.8746;-0.2095;0.1293;-0.1127;111.0;-34.01;-4.14;-10.01;100.39;73.0;7.48;5.0;47.97;39.46926;-0.342132;5.3;NaN;3.64;3.3;222.97;21 / 34;13216;2021-10-20 19:28:26:600
8.9831;-4.3849;1.6151;-5.9999;-7.6758;1.1301;-2.6561;-2.4463;-2.1584;0.1067;0.3086;-0.5995;111.0;-34.01;-4.14;-10.01;100.39;73.0;7.48;5.0;47.97;39.46926;-0.342132;5.3;NaN;3.64;3.3;222.97;21 / 34;13266;2021-10-20 19:28:26:650
7.793;-5.876;0.186;-5.9999;-7.6758;1.1301;-2.6561;-2.4463;-2.1584;0.2689;0.2559;-0.4346;111.0;-33.6;-4.2;-8.7;100.39;73.0;7.48;5.0;47.97;39.46926;-0.342132;5.3;NaN;3.64;3.3;222.97;21 / 34;13316;2021-10-20 19:28:26:700
8.717;-4.31;1.91;-4.7645;-8.5329;0.8332;1.0504;1.8552;1.1944;0.2689;0.2559;-0.4346;111.0;-33.79;-6.54;-7.31;27.37;60.45;80.08;5.0;47.97;39.46926;-0.342132;5.3;NaN;3.64;3.3;222.97;21 / 34;13366;2021-10-20 19:28:26:750
8.717;-4.31;1.91;-4.5681;-8.2983;2.5379;0.1113;0.2435;-0.498;0.0144;-0.059;0.417;120.0;-33.79;-6.54;-7.31;27.37;60.45;80.08;5.0;48.657;39.46926;-0.342132;5.3;NaN;3.64;3.3;222.97;21 / 34;13416;2021-10-20 19:28:26:800
6.02;-5.4311;2.4341;-6.766;-6.5218;2.806;2.6565;1.0386;-1.0399;0.5387;-0.1378;0.6507;120.0;-34.31;-9.9;-7.2;59.17;41.68;67.48;5.0;48.657;39.46926;-0.342132;5.3;NaN;3.64;3.3;222.97;21 / 34;13467;2021-10-20 19:28:26:851
5.222;-5.854;2.259;-6.9719;-6.3877;2.6097;3.1244;0.8501;-0.4701;0.5387;-0.1378;0.6507;120.0;-34.31;-9.9;-7.2;59.17;41.68;67.48;5.0;48.657;39.46926;-0.342132;5.3;NaN;3.64;3.3;222.97;21 / 34;13517;2021-10-20 19:28:26:901
5.948;-5.802;1.656;-6.8235;-6.9575;1.0918;3.1244;0.8501;-0.4701;0.8026;0.0879;1.1848;120.0;-33.24;-12.6;-7.8;66.13;40.63;69.48;5.0;48.657;39.46926;-0.342132;5.3;NaN;3.64;3.3;222.97;21 / 34;13566;2021-10-20 19:28:26:950
7.662;-7.786;0.722;-6.8235;-6.9575;1.0918;0.7802;1.5995;1.3015;-0.0201;-0.1075;0.9664;120.0;-32.59;-14.04;-7.44;66.13;40.63;69.48;5.0;48.657;39.46926;-0.342132;5.3;NaN;3.64;3.3;222.97;21 / 34;13616;2021-10-20 19:28:27:000
9.1361;-9.5;1.802;-6.8283;-6.9767;0.9194;0.7802;1.5995;1.3015;-0.0201;-0.1075;0.9664;120.0;-32.59;-14.04;-7.44;66.13;40.63;69.48;5.0;48.657;39.46926;-0.342132;5.3;NaN;3.64;3.3;222.97;21 / 34;13667;2021-10-20 19:28:27:051
9.593;-4.729;5.4071;-6.8809;-6.6319;2.2075;-1.5801;3.4829;-0.0345;-0.2377;-0.1584;0.5576;120.0;-32.81;-13.74;-7.01;60.47;42.54;72.21;5.0;46.085;39.46926;-0.342132;5.3;NaN;3.64;3.3;222.97;21 / 34;13717;2021-10-20 19:28:27:101
9.593;-4.729;5.4071;-2.0877;-8.6287;4.1659;-2.1915;-1.4805;-3.6826;-0.2377;-0.1584;0.5576;123.0;-32.81;-13.74;-7.01;60.47;42.54;72.21;5.0;46.085;39.46926;-0.342132;5.3;NaN;3.64;3.3;222.97;21 / 34;13766;2021-10-20 19:28:27:150
11.345;-2.75;2.1821;-4.367;-8.7293;-0.9385;-2.7761;-1.8429;1.5129;0.6377;0.137;-0.3963;123.0;-33.0;-10.39;-9.0;87.99;61.63;26.62;5.0;46.085;39.46925;-0.342127;5.9;NaN;3.27;3.1;205.75;21 / 34;13816;2021-10-20 19:28:27:200
8.7551;-4.691;-1.8469;-4.367;-8.7293;-0.9385;-2.7761;-1.8429;1.5129;0.0908;-0.0418;-1.2266;123.0;-33.54;-7.74;-9.71;87.99;61.63;26.62;5.0;46.085;39.46925;-0.342127;5.9;NaN;3.27;3.1;205.75;21 / 34;13867;2021-10-20 19:28:27:251
8.547;-3.4249;-0.418;-3.644;-9.007;-1.336;-0.682;-1.1119;3.9658;0.0908;-0.0418;-1.2266;123.0;-33.54;-7.74;-9.71;87.99;61.63;26.62;5.0;46.085;39.46925;-0.342127;5.9;NaN;3.27;3.1;205.75;21 / 34;13916;2021-10-20 19:28:27:300
6.458;-4.2289;0.6101;-4.9368;-8.4755;0.0862;1.6106;-0.8699;1.1715;-1.8421;-0.3041;-0.792;123.0;-33.9;-7.91;-8.4;351.68;66.69;110.13;5.0;46.085;39.46925;-0.342127;5.9;NaN;3.27;3.1;205.75;21 / 34;13967;2021-10-20 19:28:27:351
6.936;-4.617;2.118;-5.4779;-7.7812;2.3655;1.6106;-0.8699;1.1715;-0.6761;-0.1133;-0.1429;123.0;-33.19;-8.51;-10.31;55.29;52.52;66.64;5.0;46.085;39.46925;-0.342127;5.9;NaN;3.27;3.1;205.75;21 / 34;14017;2021-10-20 19:28:27:401
6.936;-4.617;2.118;-4.6831;-8.5856;0.6895;1.5847;-0.1941;-1.334;-0.6761;-0.1133;-0.1429;129.0;-33.19;-8.51;-10.31;55.29;52.52;66.64;0.0;42.582;39.46925;-0.342127;5.9;NaN;3.27;3.1;205.75;21 / 34;14066;2021-10-20 19:28:27:450
8.2241;-4.3339;0.1841;-4.8507;-8.5234;0.0622;0.2673;-0.5169;0.6881;0.0373;0.1673;0.1077;129.0;-32.81;-8.4;-12.84;37.45;61.13;81.62;0.0;42.582;39.46925;-0.342127;5.9;NaN;3.27;3.1;205.75;21 / 34;14116;2021-10-20 19:28:27:500
9.447;-6.335;0.581;-4.8507;-8.5234;0.0622;-0.9871;1.445;0.3442;0.0373;0.1673;0.1077;129.0;-33.3;-7.44;-12.54;28.16;60.35;89.26;0.0;42.582;39.46925;-0.342127;5.9;NaN;3.27;3.1;205.75;21 / 34;14166;2021-10-20 19:28:27:550
12.554;-7.353;1.431;-5.0901;-8.26;1.4269;-0.9871;1.445;0.3442;-0.4506;0.205;0.0534;129.0;-33.3;-7.44;-12.54;28.16;60.35;89.26;0.0;42.582;39.46925;-0.342127;5.9;NaN;3.27;3.1;205.75;21 / 34;14216;2021-10-20 19:28:27:600
12.858;-5.5361;2.582;-5.0087;-8.3606;1.0918;-4.5835;3.1977;-0.2883;-0.3396;0.1743;0.0693;129.0;-33.49;-5.94;-12.41;40.22;58.49;77.7;5.0;42.582;39.46925;-0.342127;5.9;NaN;3.27;3.1;205.75;21 / 34;14267;2021-10-20 19:28:27:651
12.755;-1.0549;3.53;-0.3352;-9.5337;2.2793;-4.8535;-2.5239;-1.9025;-0.3396;0.1743;0.0693;129.0;-33.49;-5.94;-12.41;40.22;58.49;77.7;5.0;42.582;39.46925;-0.342127;5.9;NaN;3.27;3.1;205.75;21 / 34;14316;2021-10-20 19:28:27:700
12.755;-1.0549;3.53;-5.3582;-8.1403;1.1013;-1.3479;-1.2066;-1.0836;-0.085;0.4203;-0.7906;129.0;-33.41;-3.9;-12.3;102.8;76.42;8.37;5.0;49.578;39.46925;-0.342127;5.9;NaN;3.27;3.1;205.75;21 / 34;14367;2021-10-20 19:28:27:751
6.9431;-6.328;0.95;-5.3582;-8.1403;1.1013;-1.3479;-1.2066;-1.0836;0.0308;0.3427;-0.5719;127.0;-33.9;-3.9;-11.1;36.78;56.1;78.39;5.0;49.578;39.46925;-0.342127;5.9;NaN;3.27;3.1;205.75;21 / 34;14417;2021-10-20 19:28:27:801
8.045;-4.789;1.85;-4.9177;-8.2696;1.8914;1.1208;1.2227;0.03;0.0308;0.3427;-0.5719;127.0;-33.9;-3.9;-11.1;36.78;56.1;78.39;5.0;49.578;39.46925;-0.342127;5.9;NaN;3.27;3.1;205.75;21 / 34;14467;2021-10-20 19:28:27:851
7.089;-4.777;2.903;-5.1858;-7.7045;3.1556;0.996;0.2783;-1.2703;0.3886;-0.0558;0.6975;127.0;-34.5;-7.09;-10.56;36.78;56.1;78.39;5.0;49.578;39.46925;-0.342127;5.9;NaN;3.27;3.1;205.75;21 / 34;14517;2021-10-20 19:28:27:901
5.85;-5.249;2.106;-6.3303;-7.0533;2.5331;2.5021;0.5361;-0.6458;0.3886;-0.0558;0.6975;127.0;-34.44;-10.31;-9.96;59.18;45.97;68.19;5.0;49.578;39.46925;-0.342127;5.9;NaN;3.27;3.1;205.75;21 / 34;14567;2021-10-20 19:28:27:951
5.529;-5.4191;1.517;-6.7373;-6.8761;1.8818;2.5021;0.5361;-0.6458;0.7697;-0.0657;0.7102;127.0;-34.44;-10.31;-9.96;59.18;45.97;68.19;5.0;49.578;39.46925;-0.342127;5.9;NaN;3.27;3.1;205.75;21 / 34;14616;2021-10-20 19:28:28:000
5.529;-5.4191;1.517;-6.7373;-6.8761;1.8818;2.6946;0.366;0.3151;0.6551;-0.0549;0.916;127.0;-34.2;-12.49;-8.51;54.51;44.51;74.39;5.0;49.578;39.46925;-0.342127;5.9;NaN;3.27;3.1;205.75;21 / 34;14666;2021-10-20 19:28:28:050
7.0751;-7.118;0.8801;-6.9288;-6.8905;0.8475;0.1278;2.4359;0.9258;0.6551;-0.0549;0.916;127.0;-34.2;-12.49;-8.51;54.51;44.51;74.39;5.0;48.327;39.46925;-0.342127;5.9;NaN;3.27;3.1;205.75;21 / 34;14717;2021-10-20 19:28:28:101
9.4331;-8.076;1.728;-6.3159;-7.3837;1.3455;0.1278;2.4359;0.9258;0.0154;-0.3147;0.8555;146.0;-34.14;-13.01;-7.8;41.22;44.63;83.03;5.0;48.327;39.46925;-0.342132;5.5;NaN;3.97;2.9;202.74;20 / 34;14766;2021-10-20 19:28:28:150
9.387;-7.3579;2.3741;-5.9328;-7.5705;1.9106;-2.5746;2.0199;-0.0222;0.0705;-0.3411;0.3552;146.0;-35.04;-12.0;-7.26;41.22;44.63;83.03;5.0;48.327;39.46925;-0.342132;5.5;NaN;3.97;2.9;202.74;20 / 34;14816;2021-10-20 19:28:28:200
10.7231;-2.74;3.753;-2.2984;-9.0022;3.146;-2.3943;-2.0337;-1.956;0.0705;-0.3411;0.3552;146.0;-35.04;-12.0;-7.26;41.22;44.63;83.03;5.0;48.327;39.46925;-0.342132;5.5;NaN;3.97;2.9;202.74;20 / 34;14866;2021-10-20 19:28:28:250
8.717;-4.485;1.364;-4.4484;-8.6383;1.3503;-2.3943;-2.0337;-1.956;0.6783;-0.118;-0.5793;146.0;-36.19;-9.79;-7.8;74.15;66.6;36.15;5.0;48.327;39.46925;-0.342132;5.5;NaN;3.97;2.9;202.74;20 / 34;14917;2021-10-20 19:28:28:301
8.717;-4.485;1.364;-4.4484;-8.6383;1.3503;-0.8476;-1.083;0.5084;0.6783;-0.118;-0.5793;146.0;-36.0;-8.1;-9.3;38.19;61.71;73.11;5.0;48.327;39.46925;-0.342132;5.5;NaN;3.97;2.9;202.74;20 / 34;14966;2021-10-20 19:28:28:350
7.439;-4.641;0.0281;-5.1858;-8.327;0.0287;0.525;-1.1269;1.5143;0.4521;-0.1229;-0.8134;146.0;-36.0;-8.1;-9.3;38.19;61.71;73.11;5.0;44.666;39.46925;-0.342132;5.5;NaN;3.97;2.9;202.74;20 / 34;15017;2021-10-20 19:28:28:401
7.6301;-3.257;1.115;-3.8164;-8.9399;1.2929;0.525;-1.1269;1.5143;-0.6464;-0.1676;-0.3851;157.0;-36.11;-8.4;-9.6;38.19;61.71;73.11;0.0;44.666;39.46925;-0.342132;5.5;NaN;3.97;2.9;202.74;20 / 34;15067;2021-10-20 19:28:28:451
6.948;-3.992;1.1531;-4.8363;-8.418;1.3886;0.9519;-1.5676;0.498;-0.6464;-0.1676;-0.3851;157.0;-36.11;-8.4;-9.6;38.19;61.71;73.11;0.0;44.666;39.46925;-0.342132;5.5;NaN;3.97;2.9;202.74;20 / 34;15117;2021-10-20 19:28:28:501
7.8341;-3.954;0.239;-4.4149;-8.7532;0.2586;0.7839;-0.8638;0.7455;-0.5921;-0.0047;-0.2065;157.0;-36.3;-8.59;-10.74;42.38;59.13;73.98;0.0;44.666;39.46925;-0.342132;5.5;NaN;3.97;2.9;202.74;20 / 34;15166;2021-10-20 19:28:28:550
8.94;-4.756;0.39;-4.6017;-8.6526;0.3687;-0.0339;-0.49;1.1607;-0.4983;0.0711;-0.235;157.0;-36.49;-8.59;-11.21;25.49;63.2;86.65;0.0;44.666;39.46925;-0.342132;5.5;NaN;3.97;2.9;202.74;20 / 34;15216;2021-10-20 19:28:28:600
8.94;-4.756;0.39;-4.6017;-8.6526;0.3687;-0.0339;-0.49;1.1607;-0.4983;0.0711;-0.235;157.0;-36.49;-8.59;-11.21;25.49;63.2;86.65;0.0;44.666;39.46925;-0.342132;5.5;NaN;3.97;2.9;202.74;20 / 34;15267;2021-10-20 19:28:28:651
10.527;-5.584;1.536;-4.5538;-8.5952;1.245;-1.4608;0.9126;-0.2758;-0.5108;7.0E-4;-0.1286;157.0;-37.31;-8.34;-10.44;37.68;61.22;74.71;5.0;43.231;39.46925;-0.342132;5.5;NaN;3.97;2.9;202.74;20 / 34;15316;2021-10-20 19:28:28:700
12.98;-8.167;0.3941;-5.4636;-8.1116;0.7278;-4.3844;3.5142;0.5909;-0.5108;7.0E-4;-0.1286;157.0;-37.8;-7.09;-10.61;37.68;61.22;74.71;5.0;43.231;39.46925;-0.342132;5.5;NaN;3.97;2.9;202.74;20 / 34;15366;2021-10-20 19:28:28:750
12.585;-3.829;3.7961;-0.9433;-9.3134;2.9257;-4.0062;-0.8463;-2.806;-0.1918;-0.0091;0.0925;149.0;-37.8;-7.09;-10.61;37.68;61.22;74.71;5.0;43.231;39.46925;-0.342132;5.5;NaN;3.97;2.9;202.74;20 / 34;15416;2021-10-20 19:28:28:800
10.824;-3.109;2.5151;-0.9433;-9.3134;2.9257;-4.0062;-0.8463;-2.806;0.3641;0.1815;-0.4645;149.0;-38.04;-6.49;-10.61;91.09;71.73;17.87;5.0;43.231;39.46925;-0.342132;5.5;NaN;3.97;2.9;202.74;20 / 34;15467;2021-10-20 19:28:28:851
6.4961;-6.805;0.734;-5.1332;-8.2504;1.3216;-2.1483;-1.3348;-1.3441;0.3641;0.1815;-0.4645;149.0;-38.04;-6.49;-10.61;91.09;71.73;17.87;5.0;43.231;39.46925;-0.342132;5.5;NaN;3.97;2.9;202.74;20 / 34;15517;2021-10-20 19:28:28:901
8.102;-4.461;1.496;-4.8267;-8.4659;1.0774;1.5172;1.5155;1.0204;0.6717;0.1712;-0.2322;149.0;-38.59;-9.0;-10.14;38.03;57.28;75.56;5.0;43.231;39.46925;-0.342132;5.5;NaN;3.97;2.9;202.74;20 / 34;15567;2021-10-20 19:28:28:951
8.102;-4.461;1.496;-5.6934;-7.6183;2.3894;1.2544;0.3545;-0.4401;0.0019;-0.0855;0.6359;149.0;-39.11;-13.14;-9.36;35.07;59.71;77.42;5.0;43.231;39.46925;-0.342132;5.5;NaN;3.97;2.9;202.74;20 / 34;15617;2021-10-20 19:28:29:001
5.9291;-5.064;1.919;-6.3111;-7.082;2.4948;1.2544;0.3545;-0.4401;0.0019;-0.0855;0.6359;149.0;-39.11;-13.14;-9.36;35.07;59.71;77.42;5.0;49.502;39.46925;-0.342132;5.5;NaN;3.97;2.9;202.74;20 / 34;15667;2021-10-20 19:28:29:051
5.553;-5.076;1.9241;-6.3111;-7.082;2.4948;2.7566;0.1813;-0.4999;0.2577;-0.0725;0.7055;149.0;-38.34;-16.31;-8.94;61.64;46.22;68.43;5.0;49.502;39.46925;-0.342132;5.5;NaN;3.97;2.9;202.74;20 / 34;15717;2021-10-20 19:28:29:101
5.598;-4.976;1.5341;-6.5314;-6.9767;2.2218;2.8409;-0.1525;-0.0526;0.5082;0.0589;0.8203;159.0;-37.01;-18.9;-8.7;61.64;46.22;68.43;5.0;49.502;39.469242;-0.342143;7.9;NaN;3.61;2.8;216.16;21 / 34;15767;2021-10-20 19:28:29:151
7.1561;-7.0939;1.2971;-6.8283;-6.9432;1.1492;2.8409;-0.1525;-0.0526;0.5082;0.0589;0.8203;159.0;-37.01;-18.9;-8.7;61.64;46.22;68.43;5.0;49.502;39.469242;-0.342143;7.9;NaN;3.61;2.8;216.16;21 / 34;15817;2021-10-20 19:28:29:201
10.146;-9.734;1.328;-6.7612;-7.0485;0.9194;0.696;1.4931;0.5384;0.1875;-0.0408;0.7414;159.0;-36.9;-19.8;-8.4;52.48;45.08;80.45;5.0;49.502;39.469242;-0.342143;7.9;NaN;3.61;2.8;216.16;21 / 34;15867;2021-10-20 19:28:29:251
10.146;-9.734;1.328;-6.7612;-7.0485;0.9194;-2.487;3.8326;0.4052;0.1875;-0.0408;0.7414;159.0;-36.9;-19.8;-8.4;52.48;45.08;80.45;5.0;49.502;39.469242;-0.342143;7.9;NaN;3.61;2.8;216.16;21 / 34;15917;2021-10-20 19:28:29:301
9.926;-7.422;4.4951;-5.5162;-7.3837;3.3471;-2.8898;-1.733;-4.0712;-0.1259;-0.1606;0.5339;159.0;-37.74;-18.49;-8.94;71.63;48.85;58.75;5.0;47.212;39.469242;-0.342143;7.9;NaN;3.61;2.8;216.16;21 / 34;15967;2021-10-20 19:28:29:351
11.9651;-0.528;5.184;-0.3879;-8.9926;3.893;-2.8898;-1.733;-4.0712;0.4846;0.1096;-0.1292;159.0;-38.89;-15.11;-11.04;71.63;48.85;58.75;5.0;47.212;39.469242;-0.342143;7.9;NaN;3.61;2.8;216.16;21 / 34;16016;2021-10-20 19:28:29:400
8.4491;-5.0839;-1.227;-5.0182;-8.3414;-1.2115;-3.3156;-4.4631;-0.6149;0.4846;0.1096;-0.1292;153.0;-38.89;-15.11;-11.04;71.63;48.85;58.75;5.0;47.212;39.469242;-0.342143;7.9;NaN;3.61;2.8;216.16;21 / 34;16067;2021-10-20 19:28:29:451
8.966;-4.2289;-1.857;-4.1084;-8.7197;-1.8004;0.1495;0.7438;4.5447;0.2839;-0.0419;-1.1905;153.0;-39.24;-12.71;-12.36;5.17;58.25;103.57;0.0;47.212;39.469242;-0.342143;7.9;NaN;3.61;2.8;216.16;21 / 34;16116;2021-10-20 19:28:29:500
8.1041;-3.341;1.223;-3.7062;-8.983;1.3455;-0.3791;-1.4931;1.0462;-1.7957;-0.4364;-0.5994;153.0;-39.19;-13.44;-11.76;5.17;58.25;103.57;0.0;47.212;39.469242;-0.342143;7.9;NaN;3.61;2.8;216.16;21 / 34;16166;2021-10-20 19:28:29:550
8.1041;-3.341;1.223;-3.7062;-8.983;1.3455;-0.3791;-1.4931;1.0462;-1.7957;-0.4364;-0.5994;153.0;-39.19;-13.44;-11.76;5.17;58.25;103.57;0.0;47.212;39.469242;-0.342143;7.9;NaN;3.61;2.8;216.16;21 / 34;16216;2021-10-20 19:28:29:600
6.197;-4.287;1.9841;-5.3965;-7.8003;2.49;2.0237;-0.7185;-0.8894;-0.6528;-0.0142;-0.2498;153.0;-38.51;-14.34;-14.16;62.66;52.7;65.23;0.0;47.212;39.469242;-0.342143;7.9;NaN;3.61;2.8;216.16;21 / 34;16266;2021-10-20 19:28:29:650
6.896;-4.4711;0.0521;-5.3343;-8.2313;0.0479;1.6953;-0.1662;0.9383;-0.6528;-0.0142;-0.2498;153.0;-38.51;-14.34;-14.16;62.66;52.7;65.23;0.0;45.644;39.469242;-0.342143;7.9;NaN;3.61;2.8;216.16;21 / 34;16316;2021-10-20 19:28:29:700
8.8631;-4.7531;0.167;-4.6304;-8.6431;0.158;1.6953;-0.1662;0.9383;-0.055;0.2397;0.0865;153.0;-37.44;-13.99;-17.34;62.66;52.7;65.23;5.0;45.644;39.469242;-0.342143;7.9;NaN;3.61;2.8;216.16;21 / 34;16367;2021-10-20 19:28:29:751
10.754;-6.69;1.1201;-5.1619;-8.2935;0.8619;-0.8371;0.9829;0.471;-0.7356;0.0938;0.1735;169.0;-37.44;-13.44;-17.51;48.07;57.75;80.52;5.0;45.644;39.469242;-0.342143;7.9;NaN;3.61;2.8;216.16;21 / 34;16416;2021-10-20 19:28:29:800
13.5311;-9.107;1.7681;-5.4444;-8.0924;1.0487;-3.9259;1.9893;-0.4469;-0.7356;0.0938;0.1735;169.0;-37.44;-13.44;-17.51;48.07;57.75;80.52;5.0;45.644;39.469242;-0.342143;7.9;NaN;3.61;2.8;216.16;21 / 34;16467;2021-10-20 19:28:29:851
14.414;-0.531;5.172;-0.3304;-9.2273;3.304;-5.242;-1.2068;-3.6064;-0.5107;0.2118;0.0677;169.0;-37.61;-12.11;-17.7;49.56;55.58;79.1;5.0;45.644;39.469242;-0.342143;7.9;NaN;3.61;2.8;216.16;21 / 34;16516;2021-10-20 19:28:29:900
14.414;-0.531;5.172;-0.3304;-9.2273;3.304;-5.242;-1.2068;-3.6064;0.1095;0.5407;-0.6974;169.0;-38.04;-9.3;-18.11;112.42;70.21;5.71;5.0;45.644;39.469242;-0.342143;7.9;NaN;3.61;2.8;216.16;21 / 34;16567;2021-10-20 19:28:29:951
9.014;-4.2;0.921;-4.1228;-8.8538;0.8954;-0.3308;-0.2085;0.341;0.1095;0.5407;-0.6974;169.0;-38.04;-9.3;-18.11;112.42;70.21;5.71;5.0;52.954;39.469242;-0.342143;7.9;NaN;3.61;2.8;216.16;21 / 34;16617;2021-10-20 19:28:30:001
6.465;-6.702;-0.067;-7.0629;-6.8043;-0.0575;-0.3308;-0.2085;0.341;0.0568;0.4793;-0.6487;169.0;-37.61;-10.01;-18.3;112.42;70.21;5.71;5.0;52.954;39.469242;-0.342143;7.9;NaN;3.61;2.8;216.16;21 / 34;16666;2021-10-20 19:28:30:050
8.487;-4.358;1.5911;-4.4101;-8.6143;1.6041;1.0187;1.3635;1.0465;-0.4492;-0.0844;0.5556;169.0;-37.61;-10.01;-18.3;112.42;70.21;5.71;5.0;52.954;39.469242;-0.342143;7.9;NaN;3.61;2.8;216.16;21 / 34;16717;2021-10-20 19:28:30:101
6.053;-5.06;2.63;-5.9663;-7.1395;3.1029;0.8038;0.0474;-0.7278;-0.4492;-0.0844;0.5556;161.0;-36.84;-13.61;-16.44;55.49;61.42;70.01;5.0;52.954;39.469242;-0.342157;7.8;NaN;3.36;2.7;193.11;21 / 34;16767;2021-10-20 19:28:30:151
5.6801;-5.119;2.4671;-6.2393;-6.9384;3.0119;2.909;0.3142;-1.0127;0.2166;0.0496;0.6359;161.0;-36.11;-16.01;-14.76;76.4;46.71;62.52;5.0;52.954;39.469242;-0.342157;7.8;NaN;3.36;2.7;193.11;21 / 34;16816;2021-10-20 19:28:30:200
5.6801;-5.119;2.4671;-6.2393;-6.9384;3.0119;2.909;0.3142;-1.0127;0.2166;0.0496;0.6359;161.0;-36.11;-16.01;-14.76;76.4;46.71;62.52;5.0;52.954;39.469242;-0.342157;7.8;NaN;3.36;2.7;193.11;21 / 34;16867;2021-10-20 19:28:30:251
6.122;-5.931;1.6751;-6.699;-6.9145;1.8771;2.4066;0.3742;-0.3531;0.854;0.1381;0.8097;161.0;-34.99;-18.0;-14.46;70.03;44.82;74.35;5.0;54.274;39.469242;-0.342157;7.8;NaN;3.36;2.7;193.11;21 / 34;16917;2021-10-20 19:28:30:301
8.597;-7.4509;1.122;-6.3925;-7.3741;0.9577;-0.7397;1.919;0.8521;0.2093;-0.1786;0.7974;161.0;-34.8;-19.09;-13.74;57.88;48.76;81.48;5.0;54.274;39.469242;-0.342157;7.8;NaN;3.36;2.7;193.11;21 / 34;16967;2021-10-20 19:28:30:351
9.7751;-9.438;1.503;-6.7708;-7.015;1.0774;-2.0691;3.6347;0.3461;0.2093;-0.1786;0.7974;161.0;-34.8;-19.09;-13.74;57.88;48.76;81.48;5.0;54.274;39.469242;-0.342157;7.8;NaN;3.36;2.7;193.11;21 / 34;17017;2021-10-20 19:28:30:401
8.406;-5.66;4.4231;-5.0182;-7.4603;3.9169;-2.0691;3.6347;0.3461;-0.0931;-0.3099;0.5044;159.0;-35.1;-17.34;-13.91;57.88;48.76;81.48;5.0;54.274;39.469242;-0.342157;7.8;NaN;3.36;2.7;193.11;21 / 34;17067;2021-10-20 19:28:30:451
11.288;-1.395;2.769;-1.1636;-9.4571;2.3176;-1.4602;-2.2334;-1.9682;0.4364;0.015;-0.1478;159.0;-35.1;-17.34;-13.91;57.88;48.76;81.48;5.0;54.274;39.469242;-0.342157;7.8;NaN;3.36;2.7;193.11;21 / 34;17117;2021-10-20 19:28:30:501
11.288;-1.395;2.769;-1.1636;-9.4571;2.3176;-2.9345;-3.7951;0.574;0.4364;0.015;-0.1478;159.0;-35.89;-13.2;-15.41;91.16;74.67;26.66;5.0;54.274;39.469242;-0.342157;7.8;NaN;3.36;2.7;193.11;21 / 34;17167;2021-10-20 19:28:30:551
8.159;-4.559;-1.3451;-4.7262;-8.4803;-1.3886;-0.0457;-0.512;3.0403;0.0432;0.0157;-1.1554;159.0;-37.01;-10.69;-14.81;7.82;59.85;106.37;5.0;54.274;39.469242;-0.342157;7.8;NaN;3.36;2.7;193.11;21 / 34;17216;2021-10-20 19:28:30:600
7.664;-4.7029;-0.8179;-5.1092;-8.3222;-0.8906;-0.0457;-0.512;3.0403;0.0432;0.0157;-1.1554;159.0;-37.01;-10.69;-14.81;7.82;59.85;106.37;5.0;49.842;39.469242;-0.342157;7.8;NaN;3.36;2.7;193.11;21 / 34;17266;2021-10-20 19:28:30:650
7.331;-4.1;1.2851;-4.6304;-8.2791;2.4995;1.3248;-0.4762;1.0127;-1.3203;-0.3641;-0.7175;159.0;-36.79;-10.8;-14.1;15.32;58.07;99.89;5.0;49.842;39.469242;-0.342157;7.8;NaN;3.36;2.7;193.11;21 / 34;17316;2021-10-20 19:28:30:700
7.145;-4.5041;2.532;-4.6304;-8.2791;2.4995;1.3706;-0.6099;-1.6825;-0.3531;-0.1347;0.0597;159.0;-34.91;-11.1;-16.8;67.2;57.56;61.64;5.0;49.842;39.469242;-0.342157;7.8;NaN;3.36;2.7;193.11;21 / 34;17367;2021-10-20 19:28:30:751
8.277;-4.062;-0.663;-4.9129;-8.2648;1.9345;0.6298;-0.7609;0.4599;-0.3531;-0.1347;0.0597;167.0;-34.91;-11.1;-16.8;67.2;57.56;61.64;5.0;49.842;39.469242;-0.342157;7.8;NaN;3.36;2.7;193.11;21 / 34;17417;2021-10-20 19:28:30:801
8.277;-4.062;-0.663;-4.0701;-8.849;-1.154;0.6298;-0.7609;0.4599;0.1418;0.1617;0.0655;167.0;-33.84;-10.99;-18.41;15.4;64.45;105.83;5.0;49.842;39.469242;-0.342157;7.8;NaN;3.36;2.7;193.11;21 / 34;17466;2021-10-20 19:28:30:850
9.995;-5.5429;-0.689;-5.0518;-8.3941;-0.4453;-1.5284;0.6647;1.6845;-0.9397;-0.0092;-0.1763;167.0;-33.84;-10.99;-18.41;15.4;64.45;105.83;5.0;49.842;39.469242;-0.342157;7.8;NaN;3.36;2.7;193.11;21 / 34;17517;2021-10-20 19:28:30:901
11.7041;-5.684;1.3091;-4.6591;-8.5042;1.4748;-3.1894;0.8563;-0.6175;-0.9397;-0.0092;-0.1763;167.0;-33.84;-10.44;-18.24;15.4;64.45;105.83;5.0;47.779;39.469242;-0.342157;7.8;NaN;3.36;2.7;193.11;21 / 34;17567;2021-10-20 19:28:30:951
11.987;-7.82;2.951;-3.5099;-8.7436;2.7198;-3.4578;3.0119;-2.3558;-0.5448;0.1022;-0.0686;167.0;-33.71;-9.24;-18.0;55.41;60.12;72.43;5.0;47.779;39.469242;-0.342157;7.8;NaN;3.36;2.7;193.11;21 / 34;17617;2021-10-20 19:28:31:001
13.5281;-0.976;3.927;-3.5099;-8.7436;2.7198;-3.4578;3.0119;-2.3558;0.2548;0.5394;-0.4947;167.0;-33.71;-9.24;-18.0;55.41;60.12;72.43;5.0;47.779;39.469242;-0.342157;7.8;NaN;3.36;2.7;193.11;21 / 34;17667;2021-10-20 19:28:31:051
8.085;-5.9621;0.909;-4.5633;-8.6096;1.1301;-2.9093;-1.8518;-1.3927;0.2548;0.5394;-0.4947;167.0;-34.09;-7.5;-18.11;73.31;63.08;52.23;5.0;47.779;39.469242;-0.342157;7.8;NaN;3.36;2.7;193.11;21 / 34;17717;2021-10-20 19:28:31:101
9.555;-4.492;1.6031;-4.5586;-8.6239;1.0056;0.4823;1.5839;0.6773;0.0957;0.4285;-0.4537;161.0;-34.5;-8.04;-17.16;47.18;61.57;77.56;5.0;47.779;39.469242;-0.342157;7.8;NaN;3.36;2.7;193.11;21 / 34;17767;2021-10-20 19:28:31:151
9.555;-4.492;1.6031;-4.5586;-8.6239;1.0056;0.4823;1.5839;0.6773;0.0957;0.4285;-0.4537;161.0;-34.5;-8.04;-17.16;47.18;61.57;77.56;5.0;47.779;39.469242;-0.342157;7.8;NaN;3.36;2.7;193.11;21 / 34;17816;2021-10-20 19:28:31:200
6.63;-5.2271;1.9841;-5.9089;-7.4986;2.2362;0.9583;0.7359;-0.5313;-0.0103;-0.015;0.2397;161.0;-34.2;-10.91;-15.06;63.19;49.88;69.27;5.0;48.891;39.469242;-0.342157;7.8;NaN;3.36;2.7;193.11;21 / 34;17866;2021-10-20 19:28:31:250
5.337;-5.388;1.598;-6.8235;-6.7516;2.0207;3.1539;0.9762;-0.4286;0.5618;-0.1204;0.6775;161.0;-34.2;-10.91;-15.06;63.19;49.88;69.27;5.0;48.891;39.469242;-0.342157;7.8;NaN;3.36;2.7;193.11;21 / 34;17916;2021-10-20 19:28:31:300
5.577;-5.553;1.685;-6.766;-6.7995;2.0446;3.0979;0.7365;-0.0891;0.5618;-0.1204;0.6775;161.0;-32.81;-14.04;-14.16;63.19;49.88;69.27;5.0;48.891;39.469242;-0.342157;7.8;NaN;3.36;2.7;193.11;21 / 34;17966;2021-10-20 19:28:31:350
7.0271;-6.867;0.9071;-6.8283;-6.9815;0.8954;3.0979;0.7365;-0.0891;0.7041;-0.1737;1.1891;161.0;-32.29;-16.01;-13.56;73.07;43.89;73.19;5.0;48.891;39.469242;-0.342157;7.8;NaN;3.36;2.7;193.11;21 / 34;18016;2021-10-20 19:28:31:400
9.0311;-7.853;1.493;-6.3829;-7.3454;1.2067;0.9413;1.3828;0.7821;0.2043;-0.3055;0.8421;158.0;-32.29;-16.01;-13.56;73.07;43.89;73.19;5.0;48.891;39.469242;-0.342157;7.8;NaN;3.36;2.7;193.11;21 / 34;18067;2021-10-20 19:28:31:451
9.0311;-7.853;1.493;-6.3829;-7.3454;1.2067;-1.8753;2.8501;0.1223;0.2043;-0.3055;0.8421;158.0;-32.59;-16.39;-13.01;57.85;48.51;79.29;5.0;48.891;39.469242;-0.342157;7.8;NaN;3.36;2.7;193.11;21 / 34;18117;2021-10-20 19:28:31:501
8.988;-8.21;2.525;-6.4787;-7.0916;1.992;-1.8753;2.8501;0.1223;0.1055;-0.3076;0.476;158.0;-32.94;-15.19;-13.26;66.38;46.3;72.91;5.0;48.891;39.469242;-0.342157;7.8;NaN;3.36;2.7;193.11;21 / 34;18167;2021-10-20 19:28:31:551
11.2181;-2.822;5.558;-2.1548;-8.5712;4.2473;-2.7162;-1.9634;-3.3726;0.1055;-0.3076;0.476;158.0;-32.94;-15.19;-13.26;66.38;46.3;72.91;5.0;46.869;39.469242;-0.342157;7.8;NaN;3.36;2.7;193.11;21 / 34;18217;2021-10-20 19:28:31:601
8.483;-4.38;0.5141;-4.4915;-8.7005;0.5171;-2.0686;-2.2441;-0.3387;0.7575;0.1088;-0.4635;158.0;-33.71;-11.89;-14.21;95.14;60.94;26.9;5.0;46.869;39.469242;-0.342157;7.8;NaN;3.36;2.7;193.11;21 / 34;18267;2021-10-20 19:28:31:651
7.47;-4.1959;-1.2371;-4.7549;-8.4659;-1.3886;-2.0686;-2.2441;-0.3387;0.1915;0.0338;-0.996;158.0;-33.71;-11.89;-14.21;95.14;60.94;26.9;5.0;46.869;39.469242;-0.342157;7.8;NaN;3.36;2.7;193.11;21 / 34;18317;2021-10-20 19:28:31:701
7.4801;-3.4489;0.2291;-4.1037;-8.9064;0.2586;0.5742;-1.0593;3.2135;0.1915;0.0338;-0.996;158.0;-33.24;-9.9;-14.76;11.23;59.67;106.28;5.0;46.869;39.469242;-0.342157;7.8;NaN;3.36;2.7;193.11;21 / 34;18367;2021-10-20 19:28:31:751
7.4801;-3.4489;0.2291;-4.1037;-8.9064;0.2586;1.1561;-1.2867;0.4839;-1.1364;-0.2911;-0.7483;173.0;-32.81;-10.74;-14.7;11.23;59.67;106.28;0.0;46.869;39.469242;-0.342157;7.8;NaN;3.36;2.7;193.11;21 / 34;18417;2021-10-20 19:28:31:801
7.839;-3.8389;1.934;-4.2042;-8.6048;2.1117;1.1561;-1.2867;0.4839;-0.4454;0.0077;-0.4015;173.0;-32.81;-10.74;-14.7;11.23;59.67;106.28;0.0;46.869;39.469242;-0.342157;7.8;NaN;3.36;2.7;193.11;21 / 34;18467;2021-10-20 19:28:31:851
8.81;-3.765;0.447;-4.0606;-8.9208;0.2011;-0.1232;-1.015;0.0562;-0.4454;0.0077;-0.4015;173.0;-32.94;-10.39;-15.11;61.74;61.33;63.33;0.0;46.804;39.469242;-0.342157;7.8;NaN;3.36;2.7;193.11;21 / 34;18517;2021-10-20 19:28:31:901
9.3611;-5.4161;0.239;-5.3103;-8.2361;0.4214;-0.5898;0.0506;0.892;-0.1752;0.1114;-0.3157;173.0;-32.94;-8.81;-15.6;40.58;57.11;85.46;0.0;46.804;39.469242;-0.342157;7.8;NaN;3.36;2.7;193.11;21 / 34;18567;2021-10-20 19:28:31:951
10.196;-6.367;1.563;-5.3103;-8.2361;0.4214;-0.5898;0.0506;0.892;-0.1752;0.1114;-0.3157;173.0;-32.94;-8.81;-15.6;40.58;57.11;85.46;0.0;46.804;39.469242;-0.342157;7.8;NaN;3.36;2.7;193.11;21 / 34;18617;2021-10-20 19:28:32:001
11.7191;-6.3521;1.622;-4.5107;-8.5665;1.561;-1.5829;1.7551;-0.5985;-0.2885;0.0242;-0.0256;173.0;-32.94;-8.21;-16.2;54.07;60.87;70.91;5.0;46.804;39.469242;-0.342157;7.8;NaN;3.36;2.7;193.11;21 / 34;18666;2021-10-20 19:28:32:050
11.7191;-6.3521;1.622;-4.2665;-8.6766;1.6424;-3.0623;1.8875;-0.6438;-0.1286;0.1313;0.0969;173.0;-32.94;-8.21;-16.2;54.07;60.87;70.91;5.0;46.804;39.469242;-0.342157;7.8;NaN;3.36;2.7;193.11;21 / 34;18717;2021-10-20 19:28:32:101
11.238;-3.87;2.5031;-2.3032;-9.3853;1.6807;-3.2723;-1.9149;-1.4046;-0.1286;0.1313;0.0969;169.0;-33.24;-7.2;-16.01;54.8;62.22;68.95;5.0;46.804;39.469234;-0.342173;13.0;NaN;3.12;2.5;204.85;22 / 34;18767;2021-10-20 19:28:32:151
11.0171;-4.3339;1.6061;-5.0709;-8.3366;0.9673;-3.2723;-1.9149;-1.4046;-0.039;0.3224;-0.4657;169.0;-33.71;-6.19;-14.7;54.8;62.22;68.95;5.0;46.804;39.469234;-0.342173;13.0;NaN;3.12;2.5;204.85;22 / 34;18817;2021-10-20 19:28:32:201
9.701;-4.866;1.7111;-5.0709;-8.3366;0.9673;-0.5585;1.3133;0.1381;-0.1123;0.2211;-0.3699;169.0;-33.71;-6.19;-14.7;54.8;62.22;68.95;5.0;47.245;39.469234;-0.342173;13.0;NaN;3.12;2.5;204.85;22 / 34;18867;2021-10-20 19:28:32:251
8.1071;-4.8371;2.829;-4.3958;-8.4467;2.3511;0.6738;0.6716;-1.4839;-0.1123;0.2211;-0.3699;169.0;-34.09;-7.39;-12.9;40.21;58.23;79.2;5.0;47.245;39.469234;-0.342173;13.0;NaN;3.12;2.5;204.85;22 / 34;18917;2021-10-20 19:28:32:301
5.615;-5.493;2.013;-6.1723;-7.1874;2.5331;0.6738;0.6716;-1.4839;0.5804;-0.0408;0.3554;169.0;-33.9;-10.31;-12.11;61.73;47.13;67.69;5.0;47.245;39.469234;-0.342173;13.0;NaN;3.12;2.5;204.85;22 / 34;18967;2021-10-20 19:28:32:351
4.842;-5.854;1.668;-6.1723;-7.1874;2.5331;3.0365;1.1115;-0.5126;0.5804;-0.0408;0.3554;169.0;-33.9;-10.31;-12.11;61.73;47.13;67.69;5.0;47.245;39.469234;-0.342173;13.0;NaN;3.12;2.5;204.85;22 / 34;19016;2021-10-20 19:28:32:400
4.842;-5.854;1.668;-7.3789;-6.11;2.0973;3.3443;0.7831;0.3687;1.044;-0.1008;0.9941;176.0;-33.3;-13.44;-12.11;61.73;47.13;67.69;5.0;47.245;39.469234;-0.342173;13.0;NaN;3.12;2.5;204.85;22 / 34;19066;2021-10-20 19:28:32:450
5.9411;-5.589;1.388;-6.6271;-7.0437;1.6328;3.3443;0.7831;0.3687;0.5635;-0.1742;1.2819;176.0;-33.3;-13.44;-12.11;61.73;47.13;67.69;5.0;47.245;39.469234;-0.342173;13.0;NaN;3.12;2.5;204.85;22 / 34;19116;2021-10-20 19:28:32:500
7.3601;-7.19;1.158;-6.8043;-6.9767;1.0965;0.9077;0.9283;0.829;0.5635;-0.1742;1.2819;176.0;-33.11;-15.24;-11.21;60.1;45.9;76.16;5.0;49.102;39.469234;-0.342173;13.0;NaN;3.12;2.5;204.85;22 / 34;19166;2021-10-20 19:28:32:550
9.227;-7.9489;1.905;-6.541;-7.1922;1.3024;-1.7176;1.8724;-0.1478;0.0619;-0.305;0.7413;176.0;-33.0;-14.81;-10.5;60.1;45.9;76.16;5.0;49.102;39.469234;-0.342173;13.0;NaN;3.12;2.5;204.85;22 / 34;19216;2021-10-20 19:28:32:600
9.1001;-6.666;2.975;-6.541;-7.1922;1.3024;-1.7176;1.8724;-0.1478;0.0861;-0.2826;0.3286;176.0;-33.0;-14.81;-10.5;60.1;45.9;76.16;5.0;49.102;39.469234;-0.342173;13.0;NaN;3.12;2.5;204.85;22 / 34;19266;2021-10-20 19:28:32:650
11.745;-3.2051;3.954;-3.8882;-8.4372;3.1412;-1.6809;0.4647;-1.3061;0.0861;-0.2826;0.3286;176.0;-34.2;-12.9;-11.4;71.21;59.36;51.07;5.0;49.102;39.469234;-0.342173;13.0;NaN;3.12;2.5;204.85;22 / 34;19317;2021-10-20 19:28:32:701
11.745;-3.2051;3.954;-3.462;-8.9208;2.15;-4.2249;-2.8399;-2.1631;0.5508;-0.0245;-0.506;176.0;-35.29;-9.84;-12.9;60.56;65.45;58.16;5.0;49.102;39.469234;-0.342173;13.0;NaN;3.12;2.5;204.85;22 / 34;19367;2021-10-20 19:28:32:751
8.9351;-4.251;0.842;-4.0366;-8.9352;-0.158;-0.3384;-1.5239;1.8293;0.2688;-0.0111;-1.0356;179.0;-35.29;-9.84;-12.9;60.56;65.45;58.16;5.0;49.102;39.469234;-0.342173;13.0;NaN;3.12;2.5;204.85;22 / 34;19417;2021-10-20 19:28:32:801
7.4441;-3.075;-0.16;-4.0366;-8.9352;-0.158;-0.3384;-1.5239;1.8293;0.2688;-0.0111;-1.0356;179.0;-34.8;-8.21;-13.56;23.47;65.67;92.24;5.0;44.416;39.469234;-0.342173;13.0;NaN;3.12;2.5;204.85;22 / 34;19466;2021-10-20 19:28:32:850
6.8;-3.41;-0.2651;-3.7254;-9.0692;-0.2634;1.2266;-1.9874;1.8984;-1.1381;-0.1287;-0.7942;179.0;-34.8;-8.21;-13.56;23.47;65.67;92.24;5.0;44.416;39.469234;-0.342173;13.0;NaN;3.12;2.5;204.85;22 / 34;19516;2021-10-20 19:28:32:900
7.836;-4.088;1.053;-4.7932;-8.5377;0.5746;1.3874;-0.7481;0.7524;-1.1381;-0.1287;-0.7942;179.0;-34.74;-8.51;-13.86;23.47;65.67;92.24;5.0;44.416;39.469234;-0.342173;13.0;NaN;3.12;2.5;204.85;22 / 34;19567;2021-10-20 19:28:32:951
9.0551;-3.8989;1.0121;-3.7924;-8.9783;1.1013;1.3874;-0.7481;0.7524;-1.1258;-0.1233;-0.3946;179.0;-34.61;-8.7;-14.51;46.03;66.26;73.81;5.0;44.416;39.469234;-0.342173;13.0;NaN;3.12;2.5;204.85;22 / 34;19617;2021-10-20 19:28:33:001
9.0551;-3.8989;1.0121;-4.525;-8.6526;0.8954;-0.4161;-0.6868;-0.1508;-0.3084;0.0909;-0.1864;179.0;-34.61;-8.7;-14.51;46.03;66.26;73.81;0.0;44.416;39.469234;-0.342173;13.0;NaN;3.12;2.5;204.85;22 / 34;19667;2021-10-20 19:28:33:051
9.8831;-5.672;1.158;-4.525;-8.6526;0.8954;-1.4785;1.3566;-0.4422;-0.3084;0.0909;-0.1864;179.0;-34.8;-8.21;-15.36;46.03;66.26;73.81;0.0;44.416;39.469234;-0.342173;13.0;NaN;3.12;2.5;204.85;22 / 34;19717;2021-10-20 19:28:33:101
13.062;-6.345;0.792;-4.2713;-8.8155;0.5315;-1.4785;1.3566;-0.4422;-0.157;0.1665;-0.0973;162.0;-35.1;-7.14;-15.66;37.46;63.98;82.91;0.0;44.416;39.46923;-0.342178;13.9;NaN;3.08;2.4;194.5;21 / 34;19766;2021-10-20 19:28:33:150
12.549;-6.3859;2.381;-4.3814;-8.6239;1.6281;-5.1736;3.6919;0.5997;-0.237;0.1011;0.1119;162.0;-35.1;-7.14;-15.66;37.46;63.98;82.91;0.0;46.435;39.46923;-0.342178;13.9;NaN;3.08;2.4;194.5;21 / 34;19817;2021-10-20 19:28:33:201
12.0161;-2.618;4.1051;-1.9776;-9.0884;3.1029;-4.6472;-2.4805;-3.0848;-0.237;0.1011;0.1119;162.0;-35.21;-6.24;-15.66;37.46;63.98;82.91;0.0;46.435;39.46923;-0.342178;13.9;NaN;3.08;2.4;194.5;21 / 34;19866;2021-10-20 19:28:33:250
6.462;-6.091;1.553;-6.6271;-7.0294;1.6903;-4.6472;-2.4805;-3.0848;0.0678;0.3275;-0.3569;162.0;-35.21;-6.24;-15.66;37.46;63.98;82.91;5.0;46.435;39.46923;-0.342178;13.9;NaN;3.08;2.4;194.5;21 / 34;19916;2021-10-20 19:28:33:300
6.462;-6.091;1.553;-6.6271;-7.0294;1.6903;2.2824;1.8079;-0.3326;0.0678;0.3275;-0.3569;162.0;-35.34;-6.79;-16.14;55.51;45.79;75.69;5.0;46.435;39.46923;-0.342178;13.9;NaN;3.08;2.4;194.5;21 / 34;19967;2021-10-20 19:28:33:351
8.054;-4.2671;1.244;-4.549;-8.5856;1.3216;0.6704;0.0344;0.2601;0.5016;0.3167;-0.0758;162.0;-35.29;-9.54;-16.14;50.54;61.11;73.8;5.0;46.435;39.46923;-0.342178;13.9;NaN;3.08;2.4;194.5;21 / 34;20016;2021-10-20 19:28:33:400
6.687;-4.947;1.967;-5.679;-7.671;2.2553;1.8902;0.434;-0.3855;0.1324;-0.0074;0.701;173.0;-35.29;-9.54;-16.14;50.54;61.11;73.8;5.0;46.435;39.46923;-0.342178;13.9;NaN;3.08;2.4;194.5;21 / 34;20066;2021-10-20 19:28:33:450
6.1151;-5.285;2.367;-6.1627;-7.1156;2.7485;1.8902;0.434;-0.3855;0.1324;-0.0074;0.701;173.0;-35.21;-12.41;-15.0;50.54;61.11;73.8;5.0;56.966;39.46923;-0.342178;13.9;NaN;3.08;2.4;194.5;21 / 34;20116;2021-10-20 19:28:33:500
5.8451;-5.289;1.857;-6.4069;-7.082;2.2458;2.6016;0.5877;-0.6994;0.3684;-0.0151;0.5547;173.0;-35.34;-14.4;-14.21;66.44;46.21;70.68;5.0;56.966;39.46923;-0.342178;13.9;NaN;3.08;2.4;194.5;21 / 34;20167;2021-10-20 19:28:33:551
6.8621;-7.1921;1.029;-6.4069;-7.082;2.2458;1.6525;0.9888;0.8045;0.5484;-0.0318;0.7459;173.0;-35.34;-14.4;-14.21;66.44;46.21;70.68;5.0;56.966;39.46923;-0.342178;13.9;NaN;3.08;2.4;194.5;21 / 34;20217;2021-10-20 19:28:33:601
6.8621;-7.1921;1.029;-6.9097;-6.8714;1.087;1.6525;0.9888;0.8045;0.5484;-0.0318;0.7459;173.0;-35.4;-15.79;-13.8;59.63;44.49;81.06;5.0;56.966;39.46923;-0.342178;13.9;NaN;3.08;2.4;194.5;21 / 34;20267;2021-10-20 19:28:33:651
8.559;-6.711;1.7831;-6.2728;-7.4172;1.3408;-0.0455;1.3564;0.3127;0.1095;-0.2505;0.6802;173.0;-35.4;-15.79;-13.8;59.63;44.49;81.06;5.0;56.966;39.46923;-0.342178;13.9;NaN;3.08;2.4;194.5;21 / 34;20317;2021-10-20 19:28:33:701
8.6981;-7.726;1.541;-5.0853;-8.0876;2.2266;-1.1097;1.739;0.166;0.1095;-0.2505;0.6802;173.0;-35.1;-15.19;-14.04;56.58;49.15;77.94;5.0;56.966;39.46923;-0.342178;13.9;NaN;3.08;2.4;194.5;21 / 34;20367;2021-10-20 19:28:33:751
11.733;-3.927;4.0301;-3.0071;-8.7484;3.2513;-4.1287;-2.0428;-2.3304;0.0014;-0.2291;0.2794;177.0;-35.34;-12.3;-15.36;62.14;55.53;66.35;5.0;56.966;39.46923;-0.342178;13.9;NaN;3.08;2.4;194.5;21 / 34;20417;2021-10-20 19:28:33:801
9.821;-4.0969;1.409;-3.0071;-8.7484;3.2513;-4.1287;-2.0428;-2.3304;0.3933;0.0465;-0.6142;177.0;-35.34;-12.3;-15.36;62.14;55.53;66.35;5.0;45.744;39.46923;-0.342178;13.9;NaN;3.08;2.4;194.5;21 / 34;20467;2021-10-20 19:28:33:851
7.317;-3.8959;0.1481;-3.9504;-8.9447;0.7709;-1.1002;-1.5187;1.0975;0.3933;0.0465;-0.6142;177.0;-35.59;-9.49;-16.86;62.14;55.53;66.35;5.0;45.744;39.46923;-0.342178;13.9;NaN;3.08;2.4;194.5;21 / 34;20516;2021-10-20 19:28:33:900
7.317;-3.8959;0.1481;-4.1084;-8.9016;-0.067;-1.1002;-1.5187;1.0975;-0.2482;0.1617;-1.0301;177.0;-35.21;-8.94;-17.94;31.65;65.22;90.93;5.0;45.744;39.46923;-0.342178;13.9;NaN;3.08;2.4;194.5;21 / 34;20567;2021-10-20 19:28:33:951
7.2881;-3.063;-0.5621;-4.4197;-8.7388;-0.5076;0.8486;-2.0025;2.1187;-1.438;-0.1041;-0.5981;177.0;-35.21;-8.94;-17.94;31.65;65.22;90.93;5.0;45.744;39.46923;-0.342178;13.9;NaN;3.08;2.4;194.5;21 / 34;20617;2021-10-20 19:28:34:001
7.113;-4.5281;0.696;-4.4341;-8.6862;1.0199;1.3881;-0.2192;0.5212;-1.438;-0.1041;-0.5981;177.0;-35.21;-9.84;-18.36;26.16;63.02;96.55;5.0;45.744;39.46923;-0.342178;13.9;NaN;3.08;2.4;194.5;21 / 34;20667;2021-10-20 19:28:34:051
8.382;-3.848;0.581;-4.4532;-8.7245;0.4836;1.3881;-0.2192;0.5212;-1.0372;-0.0528;-0.2707;177.0;-35.21;-9.84;-18.36;26.16;63.02;96.55;0.0;45.744;39.46923;-0.342178;13.9;NaN;3.08;2.4;194.5;21 / 34;20717;2021-10-20 19:28:34:101
9.143;-5.7679;0.45;-4.4532;-8.7245;0.4836;0.2493;-0.381;0.3532;-1.0372;-0.0528;-0.2707;154.0;-34.74;-9.9;-19.01;26.16;63.02;96.55;0.0;49.371;39.46923;-0.342178;13.9;NaN;3.08;2.4;194.5;21 / 34;20767;2021-10-20 19:28:34:151
11.604;-6.462;0.6581;-5.5115;-8.102;0.4357;-0.8132;1.7449;0.2393;-0.3888;0.0936;0.0037;154.0;-34.01;-8.81;-19.5;44.91;55.69;85.48;0.0;49.371;39.469223;-0.342182;14.9;NaN;2.89;2.4;190.94;21 / 34;20816;2021-10-20 19:28:34:200
11.628;-7.08;2.8241;-5.7988;-7.8721;0.8092;-3.8067;4.3361;-0.6022;-0.3402;0.0462;0.1393;154.0;-34.01;-8.81;-19.5;44.91;55.69;85.48;0.0;49.371;39.469223;-0.342182;14.9;NaN;2.89;2.4;190.94;21 / 34;20866;2021-10-20 19:28:34:250
11.628;-7.08;2.8241;-1.2593;-9.3087;2.8252;-3.8067;4.3361;-0.6022;-0.3402;0.0462;0.1393;154.0;-34.5;-6.71;-19.31;48.6;53.36;82.06;5.0;49.371;39.469223;-0.342182;14.9;NaN;2.89;2.4;190.94;21 / 34;20916;2021-10-20 19:28:34:300
13.9301;-1.79;4.748;-4.9895;-8.2935;1.5754;-5.4783;-2.8966;-3.4882;0.019;0.3438;-0.2012;154.0;-35.34;-4.61;-19.01;96.5;71.62;24.03;5.0;49.371;39.469223;-0.342182;14.9;NaN;2.89;2.4;190.94;21 / 34;20966;2021-10-20 19:28:34:350
8.387;-6.465;1.316;-4.9895;-8.2935;1.5754;0.2928;2.0237;-0.138;0.2361;0.5415;-0.4386;154.0;-35.34;-4.61;-19.01;96.5;71.62;24.03;5.0;49.371;39.469223;-0.342182;14.9;NaN;2.89;2.4;190.94;21 / 34;21016;2021-10-20 19:28:34:400
9.488;-4.552;2.013;-4.4197;-8.6096;1.5754;0.2928;2.0237;-0.138;0.2361;0.5415;-0.4386;140.0;-35.89;-5.21;-17.51;52.76;61.41;70.38;5.0;49.371;39.469223;-0.342182;14.9;NaN;2.89;2.4;190.94;21 / 34;21066;2021-10-20 19:28:34:450
6.843;-5.2511;1.7681;-5.047;-8.1594;2.0303;-0.2425;0.3954;-0.5829;0.2346;0.2027;-0.0349;140.0;-35.89;-5.21;-17.51;52.76;61.41;70.38;5.0;52.5;39.469223;-0.342182;14.9;NaN;2.89;2.4;190.94;21 / 34;21116;2021-10-20 19:28:34:500
5.2631;-5.8571;1.596;-6.7086;-6.8522;2.0494;2.4741;1.0883;-0.1275;0.4564;-0.136;0.5896;140.0;-35.64;-8.94;-16.8;59.05;56.31;68.09;5.0;52.5;39.469223;-0.342182;14.9;NaN;2.89;2.4;190.94;21 / 34;21166;2021-10-20 19:28:34:550
5.2631;-5.8571;1.596;-7.6902;-5.7988;1.8531;3.5992;1.3692;0.1734;0.4564;-0.136;0.5896;140.0;-34.14;-13.14;-16.74;69.2;44.33;73.01;5.0;52.5;39.469223;-0.342182;14.9;NaN;2.89;2.4;190.94;21 / 34;21216;2021-10-20 19:28:34:600
4.823;-5.919;1.575;-6.8091;-6.8378;1.7526;3.5992;1.3692;0.1734;0.6277;-0.2733;1.3577;140.0;-34.14;-13.14;-16.74;69.2;44.33;73.01;5.0;52.5;39.469223;-0.342182;14.9;NaN;2.89;2.4;190.94;21 / 34;21266;2021-10-20 19:28:34:650
6.1181;-6.522;1.23;-6.8091;-6.8378;1.7526;2.169;0.2876;0.2134;0.6277;-0.2733;1.3577;140.0;-32.89;-15.84;-15.96;71.3;44.2;75.57;5.0;52.5;39.469223;-0.342182;14.9;NaN;2.89;2.4;190.94;21 / 34;21316;2021-10-20 19:28:34:700
8.339;-7.116;1.752;-6.7229;-6.9719;1.5467;-0.7138;1.1812;-0.0319;0.4477;-0.2289;1.1773;140.0;-32.64;-16.01;-15.66;71.3;44.2;75.57;5.0;52.5;39.469223;-0.342182;14.9;NaN;2.89;2.4;190.94;21 / 34;21367;2021-10-20 19:28:34:751
7.9391;-9.182;1.5071;-7.106;-6.7133;0.7566;-0.7138;1.1812;-0.0319;0.0737;-0.2768;0.5789;153.0;-32.64;-16.01;-15.66;71.3;44.2;75.57;5.0;50.767;39.469223;-0.342182;14.9;NaN;2.89;2.4;190.94;21 / 34;21417;2021-10-20 19:28:34:801
12.3101;-3.509;5.0861;-2.4948;-8.7676;3.62;-0.4975;2.9879;0.1233;0.0737;-0.2768;0.5789;153.0;-33.71;-14.64;-15.36;58.99;43.21;83.92;5.0;50.767;39.469223;-0.342182;14.9;NaN;2.89;2.4;190.94;21 / 34;21467;2021-10-20 19:28:34:851
12.3101;-3.509;5.0861;-2.4948;-8.7676;3.62;-4.906;-2.7279;-3.4312;0.4146;-0.0606;-0.1741;153.0;-33.71;-14.64;-15.36;58.99;43.21;83.92;5.0;50.767;39.469223;-0.342182;14.9;NaN;2.89;2.4;190.94;21 / 34;21517;2021-10-20 19:28:34:901
9.342;-4.409;1.29;-4.1515;-8.8011;1.2067;-0.5091;-1.1063;1.7176;0.4419;0.0688;-0.8998;153.0;-34.61;-11.51;-15.71;50.3;63.84;73.79;5.0;50.767;39.469223;-0.342182;14.9;NaN;2.89;2.4;190.94;21 / 34;21567;2021-10-20 19:28:34:951
7.7531;-3.5471;-0.643;-4.0654;-8.8969;-0.7326;0.138;-2.1374;2.6123;0.4419;0.0688;-0.8998;153.0;-34.44;-9.24;-16.26;18.44;65.09;100.22;5.0;50.767;39.469223;-0.342182;14.9;NaN;2.89;2.4;190.94;21 / 34;21617;2021-10-20 19:28:35:001
7.671;-2.977;-0.806;-3.5243;-9.1028;-0.9529;0.138;-2.1374;2.6123;-0.8474;-0.1829;-1.0296;153.0;-34.44;-9.24;-16.26;18.44;65.09;100.22;5.0;50.767;39.469223;-0.342182;14.9;NaN;2.89;2.4;190.94;21 / 34;21667;2021-10-20 19:28:35:051
6.9821;-4.684;1.29;-5.3965;-8.0541;1.4796;1.2053;-1.3295;1.8622;-1.1602;-0.3264;-0.417;153.0;-33.84;-9.54;-16.91;13.72;68.15;105.13;0.0;47.726;39.469223;-0.342182;14.9;NaN;2.89;2.4;190.94;21 / 34;21717;2021-10-20 19:28:35:101
7.925;-4.658;1.8761;-5.3965;-8.0541;1.4796;0.9064;-0.0146;-1.2239;-1.1602;-0.3264;-0.417;147.0;-32.81;-9.0;-18.6;58.04;55.21;74.67;0.0;47.726;39.469208;-0.34219;16.8;NaN;2.8;2.3;198.97;21 / 34;21766;2021-10-20 19:28:35:150
9.636;-5.895;0.404;-4.7214;-8.4946;1.2929;0.9064;-0.0146;-1.2239;-0.1078;0.1301;0.0114;147.0;-32.81;-9.0;-18.6;58.04;55.21;74.67;0.0;47.726;39.469208;-0.34219;16.8;NaN;2.8;2.3;198.97;21 / 34;21816;2021-10-20 19:28:35:200
9.636;-5.895;0.404;-5.4875;-8.1259;0.1245;-0.5196;0.4781;0.2104;-0.1078;0.1301;0.0114;147.0;-32.21;-8.04;-20.1;58.04;55.21;74.67;0.0;47.726;39.469208;-0.34219;16.8;NaN;2.8;2.3;198.97;21 / 34;21866;2021-10-20 19:28:35:250
11.8721;-6.7061;0.6071;-4.6495;-8.6287;0.3352;-3.4105;1.8213;0.3527;-0.249;0.186;0.1521;147.0;-32.21;-8.04;-20.1;58.04;55.21;74.67;0.0;47.726;39.469208;-0.34219;16.8;NaN;2.8;2.3;198.97;21 / 34;21916;2021-10-20 19:28:35:300
12.8771;-6.18;1.6871;-2.375;-9.2895;2.0686;-4.4226;1.26;-0.8493;-0.6612;0.1305;-0.048;147.0;-32.51;-6.71;-20.4;42.49;61.62;85.88;5.0;47.726;39.469208;-0.34219;16.8;NaN;2.8;2.3;198.97;21 / 34;21966;2021-10-20 19:28:35:350
13.244;-1.78;4.1741;-2.375;-9.2895;2.0686;-4.4226;1.26;-0.8493;-0.6612;0.1305;-0.048;147.0;-33.24;-5.1;-19.8;75.48;71.27;48.95;5.0;47.726;39.469208;-0.34219;16.8;NaN;2.8;2.3;198.97;21 / 34;22016;2021-10-20 19:28:35:400
7.9271;-6.537;1.3811;-5.4013;-8.0541;1.4653;-2.032;-0.6669;-1.9617;-0.4317;0.5757;-0.7946;125.0;-33.24;-5.1;-19.8;75.48;71.27;48.95;5.0;51.375;39.469208;-0.34219;16.8;NaN;2.8;2.3;198.97;21 / 34;22066;2021-10-20 19:28:35:450
9.057;-4.547;2.3051;-4.6256;-8.4515;1.8244;0.4981;1.6797;-0.1044;-0.4317;0.5757;-0.7946;125.0;-33.71;-5.4;-19.5;53.7;55.21;74.82;5.0;51.375;39.469208;-0.34219;16.8;NaN;2.8;2.3;198.97;21 / 34;22116;2021-10-20 19:28:35:500
9.057;-4.547;2.3051;-4.64;-8.1834;2.7773;0.4981;1.6797;-0.1044;0.1099;0.4935;-0.3915;125.0;-33.9;-8.59;-18.6;71.59;56.54;59.1;5.0;51.375;39.469208;-0.34219;16.8;NaN;2.8;2.3;198.97;21 / 34;22166;2021-10-20 19:28:35:550
6.987;-4.935;2.7281;-6.2872;-7.1395;2.3798;0.6972;0.3044;-1.2673;0.4993;0.0476;0.5987;125.0;-33.9;-8.59;-18.6;71.59;56.54;59.1;5.0;51.375;39.469208;-0.34219;16.8;NaN;2.8;2.3;198.97;21 / 34;22217;2021-10-20 19:28:35:601
5.622;-5.325;2.027;-6.2872;-7.1395;2.3798;2.8943;0.7333;-0.3259;0.4993;0.0476;0.5987;125.0;-33.6;-12.24;-17.7;71.59;56.54;59.1;5.0;51.375;39.469208;-0.34219;16.8;NaN;2.8;2.3;198.97;21 / 34;22267;2021-10-20 19:28:35:651
5.1311;-5.876;1.584;-7.0533;-6.4548;2.1931;3.1258;0.913;0.3126;0.9193;-0.0419;0.7601;125.0;-33.6;-12.24;-17.7;71.59;56.54;59.1;5.0;51.375;39.469208;-0.34219;16.8;NaN;2.8;2.3;198.97;21 / 34;22317;2021-10-20 19:28:35:701
6.6161;-6.328;0.9041;-6.8474;-6.8618;1.4796;3.1258;0.913;0.3126;0.5972;-0.2159;1.1539;125.0;-32.51;-14.7;-17.4;76.77;41.15;72.73;5.0;49.168;39.469208;-0.34219;16.8;NaN;2.8;2.3;198.97;21 / 34;22367;2021-10-20 19:28:35:751
8.174;-6.984;1.7921;-6.699;-7.082;1.0582;1.3104;0.8799;1.0786;0.5972;-0.2159;1.1539;131.0;-32.34;-16.14;-17.04;65.68;46.24;81.02;5.0;49.168;39.469208;-0.34219;16.8;NaN;2.8;2.3;198.97;21 / 34;22417;2021-10-20 19:28:35:801
8.174;-6.984;1.7921;-6.699;-7.082;1.0582;-0.9185;0.9034;-0.2851;0.0637;-0.3739;0.7726;131.0;-32.34;-16.14;-17.04;65.68;46.24;81.02;5.0;49.168;39.469208;-0.34219;16.8;NaN;2.8;2.3;198.97;21 / 34;22467;2021-10-20 19:28:35:851
7.97;-7.8821;1.7231;-6.8139;-6.8953;1.4844;-0.5266;1.3821;-0.2141;0.0677;-0.2911;0.3513;131.0;-32.64;-15.54;-16.61;69.69;44.68;77.71;5.0;49.168;39.469208;-0.34219;16.8;NaN;2.8;2.3;198.97;21 / 34;22517;2021-10-20 19:28:35:901
10.4261;-4.43;3.054;-3.7014;-8.7149;2.5522;-0.5266;1.3821;-0.2141;0.0677;-0.2911;0.3513;131.0;-33.19;-13.09;-17.46;73.64;62.71;55.41;5.0;49.168;39.469208;-0.34219;16.8;NaN;2.8;2.3;198.97;21 / 34;22567;2021-10-20 19:28:35:951
10.3811;-4.672;1.857;-3.9744;-8.825;1.5754;-3.6331;-2.1343;-0.96;0.3252;-0.0164;-0.5291;131.0;-33.19;-13.09;-17.46;73.64;62.71;55.41;5.0;49.168;39.469208;-0.34219;16.8;NaN;2.8;2.3;198.97;21 / 34;22617;2021-10-20 19:28:36:001
7.805;-4.413;0.9881;-4.798;-8.4851;1.0678;-0.496;-0.7924;0.5262;0.3252;-0.0164;-0.5291;131.0;-33.71;-10.5;-19.01;59.5;64.15;68.38;5.0;48.534;39.469208;-0.34219;16.8;NaN;2.8;2.3;198.97;21 / 34;22667;2021-10-20 19:28:36:051
7.425;-2.872;0.3251;-3.5243;-9.1458;0.3879;0.4678;-2.1296;1.2584;-0.0522;0.0732;-0.9448;131.0;-33.71;-10.5;-19.01;59.5;64.15;68.38;5.0;48.534;39.469208;-0.34219;16.8;NaN;2.8;2.3;198.97;21 / 34;22717;2021-10-20 19:28:36:101
7.425;-2.872;0.3251;-3.5243;-9.1458;0.3879;0.4678;-2.1296;1.2584;-0.8029;-0.0062;-0.6707;120.0;-33.0;-9.49;-20.04;42.89;68.81;83.72;0.0;48.534;39.4692;-0.342197;17.9;NaN;2.75;2.3;202.33;21 / 34;22767;2021-10-20 19:28:36:151
7.3961;-3.564;0.263;-4.1084;-8.8681;0.7997;0.982;-1.3343;1.1824;-0.8029;-0.0062;-0.6707;120.0;-32.81;-8.89;-21.36;50.97;64.73;78.99;0.0;48.534;39.4692;-0.342197;17.9;NaN;2.75;2.3;202.33;21 / 34;22816;2021-10-20 19:28:36:200
8.889;-3.786;0.507;-4.0701;-8.9112;0.4597;0.982;-1.3343;1.1824;-0.9824;0.04;-0.5735;120.0;-32.81;-8.89;-21.36;50.97;64.73;78.99;0.0;48.534;39.4692;-0.342197;17.9;NaN;2.75;2.3;202.33;21 / 34;22866;2021-10-20 19:28:36:250
9.4661;-5.1671;0.9281;-4.4101;-8.7293;0.7183;-0.3652;-0.5266;0.6412;-0.7351;0.1015;-0.2934;120.0;-32.89;-8.21;-22.01;50.97;64.73;78.99;0.0;48.534;39.4692;-0.342197;17.9;NaN;2.75;2.3;202.33;21 / 34;22917;2021-10-20 19:28:36:301
10.338;-6.084;1.4171;-4.4101;-8.7293;0.7183;-1.7962;0.7908;0.0941;-0.7351;0.1015;-0.2934;120.0;-32.94;-7.61;-21.9;50.59;62.89;80.75;5.0;48.534;39.4692;-0.342197;17.9;NaN;2.75;2.3;202.33;21 / 34;22966;2021-10-20 19:28:36:350
12.9161;-7.616;1.512;-4.4293;-8.7053;0.8906;-3.8487;1.9032;-0.3847;-0.4034;0.1435;-0.0428;120.0;-32.94;-7.61;-21.9;50.59;62.89;80.75;5.0;48.75;39.4692;-0.342197;17.9;NaN;2.75;2.3;202.33;21 / 34;23016;2021-10-20 19:28:36:400
12.753;-2.381;3.942;-4.0606;-8.5904;2.4181;-3.8487;1.9032;-0.3847;-0.0843;0.2098;0.0952;107.0;-32.81;-6.49;-22.01;50.59;62.89;80.75;5.0;48.75;39.4692;-0.342197;17.9;NaN;2.75;2.3;202.33;21 / 34;23067;2021-10-20 19:28:36:451
12.753;-2.381;3.942;-2.0303;-9.2368;2.5905;-4.1014;-2.1484;-2.9459;-0.0843;0.2098;0.0952;107.0;-32.81;-6.49;-22.01;50.59;62.89;80.75;5.0;48.75;39.4692;-0.342197;17.9;NaN;2.75;2.3;202.33;21 / 34;23116;2021-10-20 19:28:36:500
9.548;-4.962;1.8401;-2.0303;-9.2368;2.5905;-0.8175;0.6615;-0.6169;-0.0344;0.4576;-0.4546;107.0;-32.81;-5.81;-21.54;88.77;70.39;38.09;5.0;48.75;39.4692;-0.342197;17.9;NaN;2.75;2.3;202.33;21 / 34;23166;2021-10-20 19:28:36:550
8.8991;-5.237;0.9;-4.9512;-8.4228;0.8523;-0.8175;0.6615;-0.6169;-0.0344;0.4576;-0.4546;107.0;-33.3;-7.5;-20.21;50.43;59.18;80.23;5.0;48.75;39.4692;-0.342197;17.9;NaN;2.75;2.3;202.33;21 / 34;23216;2021-10-20 19:28:36:600
7.887;-4.6811;1.9121;-4.8937;-8.26;1.9968;0.0282;0.8804;-0.0486;0.01;0.2629;-0.2893;107.0;-33.3;-7.5;-20.21;50.43;59.18;80.23;5.0;48.75;39.4692;-0.342197;17.9;NaN;2.75;2.3;202.33;21 / 34;23267;2021-10-20 19:28:36:651
5.9261;-4.981;1.9691;-6.11;-7.2832;2.4086;2.1403;0.3748;-0.4647;0.4272;-0.2249;0.6491;107.0;-33.79;-11.4;-18.36;63.27;57.39;67.8;5.0;48.75;39.4692;-0.342197;17.9;NaN;2.75;2.3;202.33;21 / 34;23317;2021-10-20 19:28:36:701
5.096;-5.6291;1.668;-7.1012;-6.4308;2.0973;3.1996;0.7181;-0.1228;0.4272;-0.2249;0.6491;107.0;-33.71;-14.89;-16.86;63.27;57.39;67.8;5.0;49.198;39.4692;-0.342197;17.9;NaN;2.75;2.3;202.33;21 / 34;23367;2021-10-20 19:28:36:751
5.096;-5.6291;1.668;-7.1012;-6.4308;2.0973;3.1996;0.7181;-0.1228;0.9826;-0.271;0.9763;73.0;-33.71;-14.89;-16.86;63.27;57.39;67.8;5.0;49.198;39.4692;-0.342197;17.9;NaN;2.75;2.3;202.33;21 / 34;23416;2021-10-20 19:28:36:800
5.625;-5.732;1.788;-6.8331;-6.7038;2.1308;3.2699;0.5551;0.0705;0.8069;-0.3197;1.127;73.0;-33.0;-17.29;-16.2;76.83;43.12;72.68;5.0;49.198;39.4692;-0.342197;17.9;NaN;2.75;2.3;202.33;21 / 34;23467;2021-10-20 19:28:36:851
7.769;-7.168;1.328;-6.5984;-7.1491;1.2163;0.9419;1.2453;0.5265;0.8069;-0.3197;1.127;73.0;-33.0;-17.29;-16.2;76.83;43.12;72.68;5.0;49.198;39.4692;-0.342197;17.9;NaN;2.75;2.3;202.33;21 / 34;23517;2021-10-20 19:28:36:901
9.095;-9.215;1.3811;-6.9432;-6.8474;1.0391;-1.4932;3.2394;0.3338;0.3567;-0.4309;0.7068;73.0;-32.94;-17.94;-15.84;76.83;43.12;72.68;5.0;49.198;39.4692;-0.342197;17.9;NaN;2.75;2.3;202.33;21 / 34;23567;2021-10-20 19:28:36:951
9.2801;-6.029;4.2701;-4.9799;-7.6758;3.5291;-1.4932;3.2394;0.3338;0.3567;-0.4309;0.7068;73.0;-33.9;-16.39;-15.71;63.56;44.28;81.49;5.0;49.198;39.4692;-0.342197;17.9;NaN;2.75;2.3;202.33;21 / 34;23617;2021-10-20 19:28:37:001
12.183;-2.096;3.8771;-1.5802;-9.2225;2.9305;-1.8187;-0.1312;-2.6119;0.3537;-0.2684;0.3497;73.0;-33.9;-16.39;-15.71;63.56;44.28;81.49;5.0;43.714;39.4692;-0.342197;17.9;NaN;2.75;2.3;202.33;21 / 34;23666;2021-10-20 19:28:37:050
12.183;-2.096;3.8771;-1.5802;-9.2225;2.9305;-2.9866;-2.6546;0.3877;0.6489;0.0534;-0.7252;73.0;-34.91;-12.3;-16.56;93.72;70.15;28.33;5.0;43.714;39.4692;-0.342197;17.9;NaN;2.75;2.3;202.33;21 / 34;23717;2021-10-20 19:28:37:101
8.5091;-4.717;-1.019;-4.7309;-8.5329;-1.0104;-2.9866;-2.6546;0.3877;0.6489;0.0534;-0.7252;67.0;-35.21;-9.84;-16.56;18.44;60.45;102.06;5.0;43.714;39.4692;-0.342197;17.9;NaN;2.75;2.3;202.33;21 / 34;23767;2021-10-20 19:28:37:151
7.803;-3.8171;-0.9551;-4.2856;-8.7532;-1.0726;-0.1362;-0.6799;3.5542;-0.5758;-0.1288;-1.2319;67.0;-35.21;-9.84;-16.56;18.44;60.45;102.06;0.0;43.714;39.469193;-0.342203;18.8;NaN;2.74;2.3;204.63;21 / 34;23816;2021-10-20 19:28:37:200
6.972;-3.714;1.0931;-4.7597;-8.3558;1.9393;1.1603;-1.4098;0.741;-1.1476;-0.4518;-0.311;67.0;-35.29;-10.2;-16.31;18.44;60.45;102.06;0.0;43.714;39.469193;-0.342203;18.8;NaN;2.74;2.3;204.63;21 / 34;23866;2021-10-20 19:28:37:250
7.212;-4.54;2.135;-4.7597;-8.3558;1.9393;1.5174;-0.6806;-1.0494;-1.1476;-0.4518;-0.311;67.0;-35.29;-10.2;-16.31;18.44;60.45;102.06;0.0;43.714;39.469193;-0.342203;18.8;NaN;2.74;2.3;204.63;21 / 34;23917;2021-10-20 19:28:37:301
9.0551;-4.284;-0.15;-4.8985;-8.3749;1.4509;1.5174;-0.6806;-1.0494;-0.1962;-0.0191;-0.1409;67.0;-35.04;-9.54;-18.11;60.97;58.4;67.83;0.0;49.147;39.469193;-0.342203;18.8;NaN;2.74;2.3;204.63;21 / 34;23967;2021-10-20 19:28:37:351
9.0551;-4.284;-0.15;-4.8411;-8.509;-0.5938;-0.5138;-0.464;1.1152;-0.1962;-0.0191;-0.1409;67.0;-35.1;-8.59;-19.5;60.97;58.4;67.83;0.0;49.147;39.469193;-0.342203;18.8;NaN;2.74;2.3;204.63;21 / 34;24017;2021-10-20 19:28:37:401
9.797;-7.0099;-0.2719;-4.8985;-8.4228;1.1109;-1.2484;2.2755;1.1704;-0.3348;0.067;-0.0793;95.0;-35.1;-8.59;-19.5;60.97;58.4;67.83;0.0;49.147;39.469193;-0.342203;18.8;NaN;2.74;2.3;204.63;21 / 34;24067;2021-10-20 19:28:37:451
13.2461;-6.8359;1.833;-4.8985;-8.4228;1.1109;-1.2484;2.2755;1.1704;-0.5846;0.0193;0.0168;95.0;-35.21;-7.5;-19.74;51.83;59.19;77.22;0.0;49.147;39.469193;-0.342203;18.8;NaN;2.74;2.3;204.63;21 / 34;24116;2021-10-20 19:28:37:500
12.497;-5.613;3.035;-4.5681;-8.5377;1.561;-5.2481;2.4889;-1.224;-0.5846;0.0193;0.0168;95.0;-35.34;-5.89;-19.56;56.2;60.51;71.13;0.0;49.147;39.469193;-0.342203;18.8;NaN;2.74;2.3;204.63;21 / 34;24167;2021-10-20 19:28:37:551
11.472;-2.618;3.078;-1.4988;-9.2416;2.9161;-4.0588;-2.6717;-3.0957;-0.0203;0.348;-0.1528;95.0;-35.34;-5.89;-19.56;56.2;60.51;71.13;5.0;49.147;39.469193;-0.342203;18.8;NaN;2.74;2.3;204.63;21 / 34;24217;2021-10-20 19:28:37:601
7.295;-6.096;0.77;-5.4013;-8.1355;0.8954;0.4936;1.0202;0.2639;0.0066;0.4987;-0.5302;95.0;-35.7;-4.99;-19.2;45.63;56.06;80.59;5.0;49.147;39.469193;-0.342203;18.8;NaN;2.74;2.3;204.63;21 / 34;24267;2021-10-20 19:28:37:651
8.231;-4.4899;1.728;-5.0805;-8.2791;1.3455;0.4936;1.0202;0.2639;0.0066;0.4987;-0.5302;95.0;-35.7;-4.99;-19.2;45.63;56.06;80.59;5.0;51.85;39.469193;-0.342203;18.8;NaN;2.74;2.3;204.63;21 / 34;24317;2021-10-20 19:28:37:701
8.231;-4.4899;1.728;-5.0039;-8.1163;2.3032;0.4732;0.1767;-0.3185;0.0389;0.0129;0.2806;95.0;-35.7;-6.9;-18.24;50.76;57.59;75.17;5.0;51.85;39.469193;-0.342203;18.8;NaN;2.74;2.3;204.63;21 / 34;24366;2021-10-20 19:28:37:750
6.8141;-4.9451;2.369;-6.3542;-6.9049;2.8635;2.3526;0.6152;-0.9884;0.4338;-0.1195;0.6419;86.0;-35.51;-10.74;-16.8;50.76;57.59;75.17;5.0;51.85;39.469193;-0.342203;18.8;NaN;2.74;2.3;204.63;21 / 34;24416;2021-10-20 19:28:37:800
5.625;-5.512;2.498;-6.3542;-6.9049;2.8635;2.3526;0.6152;-0.9884;0.4338;-0.1195;0.6419;86.0;-35.51;-10.74;-16.8;50.76;57.59;75.17;5.0;51.85;39.469193;-0.342203;18.8;NaN;2.74;2.3;204.63;21 / 34;24466;2021-10-20 19:28:37:850
5.3351;-5.8331;2.405;-6.924;-6.3446;2.8299;2.8324;0.81;-0.875;1.0769;-0.0837;0.9851;86.0;-34.99;-13.44;-15.96;75.74;40.3;67.77;5.0;51.85;39.469193;-0.342203;18.8;NaN;2.74;2.3;204.63;21 / 34;24517;2021-10-20 19:28:37:901
6.747;-7.149;1.3781;-6.7852;-6.7852;2.0159;2.2136;0.5932;-0.4344;1.0769;-0.0837;0.9851;86.0;-34.44;-14.81;-15.3;69.98;43.79;73.45;5.0;51.85;39.469193;-0.342203;18.8;NaN;2.74;2.3;204.63;21 / 34;24567;2021-10-20 19:28:37:951
8.3771;-7.59;1.838;-6.4979;-7.1778;1.5658;-0.332;1.8959;0.6537;0.76;-0.1259;1.0315;86.0;-34.44;-14.81;-15.3;69.98;43.79;73.45;5.0;52.219;39.469193;-0.342203;18.8;NaN;2.74;2.3;204.63;21 / 34;24616;2021-10-20 19:28:38:000
8.3771;-7.59;1.838;-6.4979;-7.1778;1.5658;-0.332;1.8959;0.6537;0.1323;-0.325;0.6568;86.0;-34.44;-15.11;-14.46;61.8;47.04;76.45;5.0;52.219;39.469193;-0.342203;18.8;NaN;2.74;2.3;204.63;21 / 34;24666;2021-10-20 19:28:38:050
8.327;-8.167;2.352;-6.7325;-6.8666;1.9345;-0.9519;1.9707;-0.4554;0.1323;-0.325;0.6568;86.0;-34.44;-15.11;-14.46;61.8;47.04;76.45;5.0;52.219;39.469193;-0.342203;18.8;NaN;2.74;2.3;204.63;21 / 34;24716;2021-10-20 19:28:38:100
10.4501;-3.454;4.308;-2.8587;-8.6718;3.5721;-3.1125;-2.7812;-2.4063;0.2742;-0.2071;0.1706;71.0;-34.74;-13.31;-14.76;64.74;44.43;73.97;5.0;52.219;39.469177;-0.342208;20.1;NaN;2.9;2.3;207.36;21 / 34;24766;2021-10-20 19:28:38:150
9.699;-5.38;1.041;-5.3965;-8.1834;0.1772;-3.1125;-2.7812;-2.4063;0.4131;-0.012;-0.7212;71.0;-35.29;-10.01;-16.2;64.74;44.43;73.97;5.0;52.219;39.469177;-0.342208;20.1;NaN;2.9;2.3;207.36;21 / 34;24817;2021-10-20 19:28:38:201
8.66;-4.215;-0.627;-5.3965;-8.1834;0.1772;-1.16;0.0216;1.9076;0.4131;-0.012;-0.7212;71.0;-35.29;-10.01;-16.2;64.74;44.43;73.97;5.0;52.219;39.469177;-0.342208;20.1;NaN;2.9;2.3;207.36;21 / 34;24867;2021-10-20 19:28:38:251
8.006;-2.872;-0.313;-3.395;-9.1937;-0.3543;-0.8035;-2.1134;2.287;-0.7111;-0.1217;-1.0317;71.0;-35.89;-8.7;-16.31;20.84;69.63;95.96;5.0;52.219;39.469177;-0.342208;20.1;NaN;2.9;2.3;207.36;21 / 34;24916;2021-10-20 19:28:38:300
8.006;-2.872;-0.313;-3.8642;-9.0118;-0.2825;0.8863;-1.931;1.684;-0.7111;-0.1217;-1.0317;71.0;-35.89;-9.41;-15.84;23.61;66.74;94.18;5.0;45.918;39.469177;-0.342208;20.1;NaN;2.9;2.3;207.36;21 / 34;24966;2021-10-20 19:28:38:350
6.654;-4.2461;0.387;-5.4636;-8.1163;0.6943;0.8863;-1.931;1.684;-1.3094;-0.2827;-0.6143;71.0;-35.89;-9.41;-15.84;23.61;66.74;94.18;5.0;45.918;39.469177;-0.342208;20.1;NaN;2.9;2.3;207.36;21 / 34;25017;2021-10-20 19:28:38:401
8.138;-4.236;0.698;-4.391;-8.7532;0.5076;1.0232;-0.233;0.1549;-0.7146;-0.1456;-0.3411;75.0;-35.1;-9.41;-16.56;44.17;55.84;82.76;0.0;45.918;39.469177;-0.342208;20.1;NaN;2.9;2.3;207.36;21 / 34;25066;2021-10-20 19:28:38:450
8.6381;-5.514;0.38;-4.391;-8.7532;0.5076;-0.0826;0.7467;0.2664;-0.7146;-0.1456;-0.3411;75.0;-35.1;-9.41;-16.56;44.17;55.84;82.76;0.0;45.918;39.469177;-0.342208;20.1;NaN;2.9;2.3;207.36;21 / 34;25116;2021-10-20 19:28:38:500
9.404;-7.0871;1.0691;-6.11;-7.6519;0.5363;-0.0826;0.7467;0.2664;-0.0653;-0.0206;0.1833;75.0;-34.61;-8.04;-17.81;40.56;63.21;83.41;0.0;45.918;39.469177;-0.342208;20.1;NaN;2.9;2.3;207.36;21 / 34;25167;2021-10-20 19:28:38:551
12.5711;-8.25;0.9281;-5.0422;-8.3941;0.565;-0.9122;2.2055;-0.4497;-0.1331;0.0604;0.224;75.0;-34.74;-6.9;-18.36;41.72;58.85;83.61;0.0;45.918;39.469177;-0.342208;20.1;NaN;2.9;2.3;207.36;21 / 34;25217;2021-10-20 19:28:38:601
12.5711;-8.25;0.9281;-3.8595;-8.8107;1.9201;-4.2922;2.6668;-1.1676;-0.1331;0.0604;0.224;75.0;-34.74;-6.9;-18.36;41.72;58.85;83.61;5.0;44.668;39.469177;-0.342208;20.1;NaN;2.9;2.3;207.36;21 / 34;25266;2021-10-20 19:28:38:650
12.8291;-3.023;3.375;-1.5036;-9.232;2.9449;-4.2922;2.6668;-1.1676;-0.0258;0.3097;-0.1379;75.0;-34.91;-5.59;-18.0;41.72;58.85;83.61;5.0;44.668;39.469177;-0.342208;20.1;NaN;2.9;2.3;207.36;21 / 34;25316;2021-10-20 19:28:38:700
10.127;-4.4711;2.604;-1.5036;-9.232;2.9449;-4.0721;-2.7973;-3.1486;-0.0258;0.3097;-0.1379;75.0;-35.21;-4.14;-17.16;90.91;70.29;27.05;5.0;44.668;39.469177;-0.342208;20.1;NaN;2.9;2.3;207.36;21 / 34;25366;2021-10-20 19:28:38:750
8.004;-5.941;0.749;-6.2106;-7.5322;0.9433;0.7866;1.96;0.1695;0.0773;0.5229;-0.6339;66.0;-35.21;-4.14;-17.16;90.91;70.29;27.05;5.0;44.668;39.469177;-0.342208;20.1;NaN;2.9;2.3;207.36;21 / 34;25417;2021-10-20 19:28:38:801
8.5571;-4.816;2.151;-4.5777;-8.4467;1.9537;-0.201;0.4989;-0.6731;0.2446;0.2427;-0.1323;66.0;-35.4;-6.19;-15.66;55.88;59.49;66.89;5.0;44.668;39.469177;-0.342208;20.1;NaN;2.9;2.3;207.36;21 / 34;25467;2021-10-20 19:28:38:851
6.3401;-5.388;2.015;-5.7557;-7.5896;2.3415;-0.201;0.4989;-0.6731;0.2446;0.2427;-0.1323;66.0;-35.4;-6.19;-15.66;55.88;59.49;66.89;5.0;44.668;39.469177;-0.342208;20.1;NaN;2.9;2.3;207.36;21 / 34;25516;2021-10-20 19:28:38:900
6.3401;-5.388;2.015;-6.7516;-6.6511;2.5187;2.1911;0.7624;-0.5262;0.4969;-0.1548;0.6251;66.0;-35.59;-9.6;-14.7;61.2;50.69;67.86;5.0;52.185;39.469177;-0.342208;20.1;NaN;2.9;2.3;207.36;21 / 34;25566;2021-10-20 19:28:38:950
4.9211;-5.881;2.039;-7.1682;-6.3351;2.1691;3.6885;0.7396;-0.2279;0.9321;-0.1724;1.0479;66.0;-34.69;-13.31;-14.04;61.2;50.69;67.86;5.0;52.185;39.469177;-0.342208;20.1;NaN;2.9;2.3;207.36;21 / 34;25617;2021-10-20 19:28:39:001
5.277;-5.3831;1.3451;-7.1682;-6.3351;2.1691;3.6885;0.7396;-0.2279;0.9321;-0.1724;1.0479;66.0;-34.69;-13.31;-14.04;61.2;50.69;67.86;5.0;52.185;39.469177;-0.342208;20.1;NaN;2.9;2.3;207.36;21 / 34;25666;2021-10-20 19:28:39:050
6.8741;-8.004;0.8441;-7.4172;-6.3686;0.7709;1.5765;1.3599;1.1645;0.5785;-0.2101;1.0806;66.0;-33.9;-15.6;-13.26;74.05;40.23;73.16;5.0;52.185;39.469177;-0.342208;20.1;NaN;2.9;2.3;207.36;21 / 34;25716;2021-10-20 19:28:39:100
9.009;-9.277;1.5941;-6.9863;-6.7804;1.2019;1.5765;1.3599;1.1645;0.5785;-0.2101;1.0806;74.0;-34.91;-15.11;-12.96;58.52;43.73;80.24;5.0;52.185;39.46916;-0.342212;21.3;NaN;3.09;2.3;206.4;21 / 34;25766;2021-10-20 19:28:39:150
8.801;-7.41;4.5641;-5.8706;-6.9719;3.6152;-1.6232;3.0408;0.091;0.0081;-0.4;0.725;74.0;-34.91;-15.11;-12.96;58.52;43.73;80.24;5.0;52.185;39.46916;-0.342212;21.3;NaN;3.09;2.3;206.4;21 / 34;25817;2021-10-20 19:28:39:201
8.801;-7.41;4.5641;-5.8706;-6.9719;3.6152;-2.8275;-1.818;-3.8157;0.4597;-0.1013;0.2493;74.0;-35.7;-12.19;-13.5;58.52;43.73;80.24;5.0;52.185;39.46916;-0.342212;21.3;NaN;3.09;2.3;206.4;21 / 34;25867;2021-10-20 19:28:39:251
12.135;-1.6181;4.337;-1.2163;-9.165;3.2753;-3.8132;-3.7781;-0.0595;0.4597;-0.1013;0.2493;74.0;-35.7;-12.19;-13.5;58.52;43.73;80.24;5.0;44.057;39.46916;-0.342212;21.3;NaN;3.09;2.3;206.4;21 / 34;25917;2021-10-20 19:28:39:301
8.021;-5.337;-1.584;-5.3582;-8.0589;-1.5897;-3.8132;-3.7781;-0.0595;0.7252;0.076;-0.9881;74.0;-35.81;-8.21;-14.46;95.04;69.13;20.37;5.0;44.057;39.46916;-0.342212;21.3;NaN;3.09;2.3;206.4;21 / 34;25967;2021-10-20 19:28:39:351
8.492;-3.753;-0.129;-3.96;-8.9735;-0.1293;-0.2752;-0.3154;3.7111;-1.0761;-0.1284;-1.2925;74.0;-35.81;-7.14;-14.21;6.57;55.26;106.53;5.0;44.057;39.46916;-0.342212;21.3;NaN;3.09;2.3;206.4;21 / 34;26016;2021-10-20 19:28:39:400
8.492;-3.753;-0.129;-3.96;-8.9735;-0.1293;-0.0077;-1.7129;1.2303;-1.0761;-0.1284;-1.2925;74.0;-35.81;-7.14;-14.21;6.57;55.26;106.53;0.0;44.057;39.46916;-0.342212;21.3;NaN;3.09;2.3;206.4;21 / 34;26066;2021-10-20 19:28:39:450
7.128;-3.884;0.8561;-4.6687;-8.5665;1.0151;1.2437;-0.947;-0.2836;-1.3207;-0.305;-0.3447;62.0;-35.64;-7.5;-14.81;42.85;60.85;77.73;0.0;44.057;39.46916;-0.342212;21.3;NaN;3.09;2.3;206.4;21 / 34;26117;2021-10-20 19:28:39:501
7.8101;-4.1621;0.72;-4.5921;-8.6287;0.7853;1.2437;-0.947;-0.2836;-1.3207;-0.305;-0.3447;62.0;-34.91;-6.9;-16.61;42.85;60.85;77.73;0.0;44.057;39.46916;-0.342212;21.3;NaN;3.09;2.3;206.4;21 / 34;26166;2021-10-20 19:28:39:550
8.7431;-4.4059;-0.253;-4.4101;-8.7532;-0.2442;0.2672;-0.9429;0.8519;-0.4432;0.0678;-0.3274;62.0;-34.91;-6.9;-16.61;42.85;60.85;77.73;0.0;48.522;39.46916;-0.342212;21.3;NaN;3.09;2.3;206.4;21 / 34;26216;2021-10-20 19:28:39:600
9.1961;-6.771;0.627;-5.9185;-7.7572;0.9625;-0.6981;0.9985;0.5509;-0.5785;0.0942;-0.1137;62.0;-34.74;-6.19;-18.3;28.62;63.22;93.17;0.0;48.522;39.46916;-0.342212;21.3;NaN;3.09;2.3;206.4;21 / 34;26266;2021-10-20 19:28:39:650
13.193;-7.6181;1.484;-5.9185;-7.7572;0.9625;-2.8045;2.3728;-1.0467;-0.5785;0.0942;-0.1137;62.0;-34.74;-6.19;-18.3;28.62;63.22;93.17;0.0;48.522;39.46916;-0.342212;21.3;NaN;3.09;2.3;206.4;21 / 34;26316;2021-10-20 19:28:39:700
12.729;-5.285;3.0611;-5.0566;-8.3606;0.8475;-2.8045;2.3728;-1.0467;-0.4268;0.1738;0.1412;62.0;-35.04;-4.91;-18.9;48.11;52.3;80.76;0.0;48.522;39.46916;-0.342212;21.3;NaN;3.09;2.3;206.4;21 / 34;26366;2021-10-20 19:28:39:750
12.729;-5.285;3.0611;-1.494;-9.2656;2.8491;-4.2625;0.3668;-2.3941;-0.0052;0.4309;-0.164;53.0;-35.34;-3.19;-17.94;91.0;70.85;27.67;0.0;48.522;39.46916;-0.342212;21.3;NaN;3.09;2.3;206.4;21 / 34;26417;2021-10-20 19:28:39:801
12.389;-1.5341;4.325;-3.6536;-8.7963;2.332;-0.9738;-0.5498;-1.4976;-0.0052;0.4309;-0.164;53.0;-35.34;-3.19;-17.94;91.0;70.85;27.67;0.0;48.522;39.46916;-0.342212;21.3;NaN;3.09;2.3;206.4;21 / 34;26467;2021-10-20 19:28:39:851
6.9911;-6.781;1.3451;-6.6607;-7.1204;1.0487;-0.9738;-0.5498;-1.4976;0.0956;0.612;-0.6861;53.0;-35.94;-3.11;-17.46;62.3;63.77;57.45;5.0;45.472;39.46916;-0.342212;21.3;NaN;3.09;2.3;206.4;21 / 34;26516;2021-10-20 19:28:39:900
8.408;-4.894;1.632;-4.865;-8.2839;1.9585;1.7868;2.26;0.375;0.4131;0.1746;0.0689;53.0;-36.6;-6.0;-16.56;62.3;63.77;57.45;5.0;45.472;39.46916;-0.342212;21.3;NaN;3.09;2.3;206.4;21 / 34;26566;2021-10-20 19:28:39:950
6.651;-5.131;2.2571;-4.865;-8.2839;1.9585;1.9728;0.7261;-0.6483;0.4131;0.1746;0.0689;53.0;-36.6;-6.0;-16.56;62.3;63.77;57.45;5.0;45.472;39.46916;-0.342212;21.3;NaN;3.09;2.3;206.4;21 / 34;26617;2021-10-20 19:28:40:001
5.876;-5.507;2.393;-6.0669;-7.2736;2.557;1.9728;0.7261;-0.6483;0.4507;-0.0179;0.5169;53.0;-36.71;-10.14;-15.0;63.19;47.85;67.15;5.0;45.472;39.46916;-0.342212;21.3;NaN;3.09;2.3;206.4;21 / 34;26666;2021-10-20 19:28:40:050
5.876;-5.507;2.393;-6.7947;-6.541;2.6911;2.5044;0.6684;-0.7517;0.4507;-0.0179;0.5169;53.0;-36.71;-10.14;-15.0;63.19;47.85;67.15;5.0;45.472;39.46916;-0.342212;21.3;NaN;3.09;2.3;206.4;21 / 34;26717;2021-10-20 19:28:40:101
