sep=;
ACCELEROMETER X (m/s²);ACCELEROMETER Y (m/s²);ACCELEROMETER Z (m/s²);GRAVITY X (m/s²);GRAVITY Y (m/s²);GRAVITY Z (m/s²);LINEAR ACCELERATION X (m/s²);LINEAR ACCELERATION Y (m/s²);LINEAR ACCELERATION Z (m/s²);GYROSCOPE X (rad/s);GYROSCOPE Y (rad/s);GYROSCOPE Z (rad/s);LIGHT (lux);MAGNETIC FIELD X (μT);MAGNETIC FIELD Y (μT);MAGNETIC FIELD Z (μT);ORIENTATION Z (azimuth °);ORIENTATION X (pitch °);ORIENTATION Y (roll °);PROXIMITY (m);SOUND LEVEL (dB);LOCATION Latitude : ;LOCATION Longitude : ;LOCATION Altitude ( m);LOCATION Altitude-google ( m);LOCATION Speed ( Kmh);LOCATION Accuracy ( m);LOCATION ORIENTATION (°);Satellites in range;Time since start in ms ;YYYY-MO-DD HH-MI-SS_SSS
2.846;3.312;2.405;8.8681;-4.1851;-0.0335;-0.1904;2.6228;1.4477;-0.2274;2.271;4.943;19.0;-13.91;21.19;34.31;48.81;23.02;-32.26;5.0;33.183;39.468956;-0.341159;66.5;NaN;;26.4;;0 / 33;17;2021-10-20 19:25:08:507
2.759;4.782;7.934;8.8681;-4.1851;-0.0335;0.0186;2.0731;7.9833;-0.2274;2.271;4.943;19.0;-13.91;21.19;34.31;48.81;23.02;-32.26;5.0;33.183;39.468956;-0.341159;66.5;NaN;;26.4;;0 / 33;67;2021-10-20 19:25:08:557
7.226;3.387;4.385;6.3925;-6.0334;4.3479;-3.8209;0.7535;6.333;0.3946;1.4246;2.8779;19.0;-15.41;22.39;32.81;59.39;37.97;-55.78;5.0;33.183;39.468956;-0.341159;66.5;NaN;;26.4;;0 / 33;116;2021-10-20 19:25:08:606
7.226;3.387;4.385;0.656;-6.0238;7.7093;-3.8209;0.7535;6.333;1.2852;-0.5775;2.3533;19.0;-19.14;21.54;32.64;30.72;37.9;-4.86;5.0;33.183;39.468956;-0.341159;66.5;NaN;;26.4;;0 / 33;166;2021-10-20 19:25:08:656
2.36;0.854;4.6691;4.3;-4.5538;7.5465;1.7284;5.2721;3.613;1.2852;-0.5775;2.3533;19.0;-19.14;21.54;32.64;30.72;37.9;-4.86;5.0;33.183;39.468956;-0.341159;66.5;NaN;;26.4;;0 / 33;216;2021-10-20 19:25:08:706
5.6051;3.518;9.0401;4.3;-4.5538;7.5465;-1.5218;1.7325;-1.8172;0.489;-0.1492;2.2744;19.0;-23.64;19.61;34.01;55.49;27.67;-29.67;5.0;34.578;39.468956;-0.341159;66.5;NaN;;26.4;;0 / 33;266;2021-10-20 19:25:08:756
8.739;3.4271;1.9961;2.0399;-8.8538;3.6871;-1.5218;1.7325;-1.8172;0.1818;-0.396;1.7203;22.0;-23.64;19.61;34.01;55.49;27.67;-29.67;5.0;34.578;39.468956;-0.341159;66.5;NaN;;26.4;;0 / 33;317;2021-10-20 19:25:08:807
2.022;3.705;6.458;6.9719;-6.8809;0.4405;-3.8368;-0.2199;7.2253;0.1818;-0.396;1.7203;22.0;-27.24;15.9;38.94;58.66;64.55;-28.95;5.0;34.578;39.468956;-0.341159;66.5;NaN;;26.4;;0 / 33;367;2021-10-20 19:25:08:857
3.645;-3.341;8.7431;-1.0534;-3.5243;9.0932;1.0579;5.8557;-5.5493;0.0965;-0.8243;0.6408;22.0;-31.44;13.09;44.4;58.66;64.55;-28.95;5.0;34.578;39.468956;-0.341159;66.5;NaN;;26.4;;0 / 33;417;2021-10-20 19:25:08:907
3.645;-3.341;8.7431;-1.3551;-9.6822;-0.7709;1.0579;5.8557;-5.5493;0.0965;-0.8243;0.6408;22.0;-31.44;13.09;44.4;58.66;64.55;-28.95;5.0;34.578;39.468956;-0.341159;66.5;NaN;;26.4;;0 / 33;466;2021-10-20 19:25:08:956
12.75;2.1011;-13.344;-1.3982;-7.5274;6.1292;-5.1705;5.2906;7.6025;-1.1297;-0.4085;1.2706;22.0;-38.1;13.09;49.61;279.36;80.85;119.64;5.0;34.578;39.468956;-0.341159;66.5;NaN;;26.4;;0 / 33;516;2021-10-20 19:25:09:006
12.545;-1.668;6.374;-1.3982;-7.5274;6.1292;-5.1705;5.2906;7.6025;-1.1297;-0.4085;1.2706;22.0;-38.1;13.09;49.61;279.36;80.85;119.64;5.0;34.578;39.468956;-0.341159;66.5;NaN;;26.4;;0 / 33;566;2021-10-20 19:25:09:056
14.309;-3.2839;7.602;-1.312;-8.5712;4.5873;-5.3464;3.7347;-0.0312;-1.5694;-1.6823;1.7023;22.0;-45.84;16.44;51.96;30.27;50.13;12.85;5.0;47.382;39.468956;-0.341159;66.5;NaN;;26.4;;0 / 33;617;2021-10-20 19:25:09:107
14.309;-3.2839;7.602;-0.1149;-9.7205;1.2833;-18.9583;2.0294;-6.1694;-1.5694;-1.6823;1.7023;22.0;-59.81;28.09;57.11;30.27;50.13;12.85;5.0;47.382;39.468956;-0.341159;66.5;NaN;;26.4;;0 / 33;667;2021-10-20 19:25:09:157
33.135;4.433;-23.0381;-3.8116;-6.7469;6.0142;-0.8965;6.0406;-4.7639;-0.4771;-0.8257;0.8297;22.0;-59.81;28.09;57.11;30.27;50.13;12.85;5.0;47.382;39.468956;-0.341159;66.5;NaN;;26.4;;0 / 33;717;2021-10-20 19:25:09:207
12.183;-7.492;12.432;-6.3925;-7.1204;-2.15;-0.8965;6.0406;-4.7639;-0.9027;-1.4215;0.5266;22.0;-42.54;-18.24;-6.41;91.04;43.46;32.36;0.0;47.382;39.468956;-0.341159;66.5;NaN;;26.4;;0 / 33;766;2021-10-20 19:25:09:256
3.738;1.3451;-1.354;-0.9194;-8.3558;5.0613;8.1266;-1.2625;16.1344;-0.9027;-1.4215;0.5266;22.0;-43.8;-15.11;-5.64;91.04;43.46;32.36;0.0;47.382;39.468956;-0.341159;66.5;NaN;;26.4;;0 / 33;816;2021-10-20 19:25:09:306
1.7111;0.873;-3.65;1.8771;-8.327;-4.8267;7.4946;-2.3036;6.7242;-6.6071;0.4602;-0.1793;22.0;-43.8;-15.11;-5.64;91.04;43.46;32.36;0.0;47.382;39.468956;-0.341159;66.5;NaN;;26.4;;0 / 33;867;2021-10-20 19:25:09:357
6.726;-3.6551;-0.746;1.8771;-8.327;-4.8267;7.4946;-2.3036;6.7242;-8.368;-0.7232;-0.6673;22.0;-44.46;-15.36;-1.2;243.45;58.12;-158.75;0.0;53.732;39.468956;-0.341159;66.5;NaN;;26.4;;0 / 33;916;2021-10-20 19:25:09:406
13.404;-5.763;0.864;-4.5681;-4.1468;-7.6231;2.6457;1.5141;2.7322;-8.368;-0.7232;-0.6673;0.0;-44.46;-14.4;4.09;263.44;25.01;149.07;0.0;53.732;39.468956;-0.341159;66.5;NaN;;26.4;;0 / 33;966;2021-10-20 19:25:09:456
13.404;-5.763;0.864;-3.5961;-8.9783;1.6233;-3.9861;3.3783;0.4923;-4.1792;-0.3242;0.3163;0.0;-44.46;-14.4;4.09;263.44;25.01;149.07;0.0;53.732;39.468956;-0.341159;66.5;NaN;;26.4;;0 / 33;1016;2021-10-20 19:25:09:506
11.324;-4.923;-2.958;-3.9648;-8.9687;-0.2298;-0.1925;1.1597;0.9166;-1.449;-0.2084;0.7497;0.0;-44.21;-14.89;8.81;16.2;66.28;65.71;0.0;53.732;39.468956;-0.341159;66.5;NaN;;26.4;;0 / 33;1066;2021-10-20 19:25:09:556
7.7;-2.601;1.728;-0.5555;-9.596;1.9537;-0.1925;1.1597;0.9166;-1.449;-0.2084;0.7497;0.0;-43.61;-15.19;9.24;66.74;78.05;15.87;0.0;53.732;39.468956;-0.341159;66.5;NaN;;26.4;;0 / 33;1117;2021-10-20 19:25:09:607
5.139;4.899;-4.44;6.1483;2.2601;-7.2975;2.1421;-2.8755;-0.9055;0.3191;-0.1002;-0.1902;0.0;-43.61;-15.19;9.24;66.74;78.05;15.87;0.0;53.732;39.468956;-0.341159;66.5;NaN;;26.4;;0 / 33;1166;2021-10-20 19:25:09:656
8.7;7.31;-6.1421;6.1483;2.2601;-7.2975;10.3267;-5.5411;3.4096;0.3191;-0.1002;-0.1902;0.0;-43.8;-15.71;8.34;255.02;-13.33;-139.89;0.0;56.788;39.468956;-0.341159;66.5;NaN;;26.4;;0 / 33;1217;2021-10-20 19:25:09:707
8.265;-3.272;7.623;5.0853;-6.5553;-5.2337;-2.4155;-6.3108;-3.9634;-5.0487;-1.1659;-2.0112;0.0;-43.8;-15.71;8.34;255.02;-13.33;-139.89;0.0;56.788;39.468956;-0.341159;66.5;NaN;;26.4;;0 / 33;1267;2021-10-20 19:25:09:757
8.265;-3.272;7.623;-8.7771;-1.6089;4.0749;-2.4155;-6.3108;-3.9634;4.6314;0.9177;-3.0705;0.0;-41.46;-16.26;12.36;209.8;41.93;-135.82;0.0;56.788;39.468956;-0.341159;66.5;NaN;;26.4;;0 / 33;1317;2021-10-20 19:25:09:807
11.901;-14.78;-8.7461;-3.2609;-8.0206;-4.6064;-2.6098;12.9193;6.1787;4.6314;0.9177;-3.0705;0.0;-36.96;-15.0;21.36;263.04;54.87;144.71;0.0;56.788;39.468956;-0.341159;66.5;NaN;;26.4;;0 / 33;1367;2021-10-20 19:25:09:857
5.474;-8.777;-4.377;-4.4628;3.3854;8.0493;-2.6098;12.9193;6.1787;2.1336;-0.6982;1.3053;0.0;-36.96;-15.0;21.36;263.04;54.87;144.71;0.0;56.788;39.468956;-0.341159;66.5;NaN;;26.4;;0 / 33;1416;2021-10-20 19:25:09:906
23.115;-9.2411;2.927;-2.4038;-8.1451;4.9081;11.2622;-0.2278;-8.5593;1.8994;-0.9966;0.917;0.0;-37.56;-11.51;23.1;138.05;-20.2;29.01;0.0;56.788;39.468956;-0.341159;66.5;NaN;;26.4;;0 / 33;1466;2021-10-20 19:25:09:956
3.848;-0.8539;0.023;-2.4038;-8.1451;4.9081;-9.5981;0.9739;-13.4357;1.8994;-0.9966;0.917;0.0;-37.56;-11.51;23.1;138.05;-20.2;29.01;0.0;63.78;39.468956;-0.341159;66.5;NaN;;26.4;;0 / 33;1516;2021-10-20 19:25:10:006
13.248;-14.1319;2.0411;-0.9625;-3.3806;-9.1554;-5.8169;2.9821;-4.5521;2.8777;0.0356;-0.385;0.0;-42.19;-8.1;14.51;54.66;56.14;26.09;0.0;63.78;39.468956;-0.341159;66.5;NaN;;26.4;;0 / 33;1567;2021-10-20 19:25:10:057
13.248;-14.1319;2.0411;-7.3694;-5.9807;2.4756;-5.8169;2.9821;-4.5521;2.8777;0.0356;-0.385;0.0;-43.74;-1.44;10.09;9.68;37.57;71.43;0.0;63.78;39.468956;-0.341159;66.5;NaN;;26.4;;0 / 33;1617;2021-10-20 19:25:10:107
1.991;-7.173;-3.1691;-4.5586;-8.6814;-0.1437;6.5011;2.3079;2.4456;1.5434;0.4392;0.4459;0.0;-43.74;-1.44;10.09;9.68;37.57;71.43;0.0;63.78;39.468956;-0.341159;66.5;NaN;;26.4;;0 / 33;1667;2021-10-20 19:25:10:157
8.246;-7.427;-2.089;-6.3063;-7.1443;-2.332;6.5011;2.3079;2.4456;0.3477;0.3204;1.0281;0.0;-44.16;4.26;12.96;340.42;62.28;91.8;0.0;63.78;39.468956;-0.341159;66.5;NaN;;26.4;;0 / 33;1716;2021-10-20 19:25:10:206
8.15;5.613;2.4;-3.7254;-8.9112;-1.6999;2.5624;-0.7907;1.2493;0.3477;0.3204;1.0281;0.0;-44.76;6.54;12.36;320.43;46.74;110.29;0.0;63.78;39.468956;-0.341159;66.5;NaN;;26.4;;0 / 33;1766;2021-10-20 19:25:10:256
7.781;-18.7009;1.419;-3.7254;-8.9112;-1.6999;-0.6172;7.3959;-1.1104;-0.0455;-0.6753;-1.6298;0.0;-44.76;6.54;12.36;320.43;46.74;110.29;0.0;63.26;39.468956;-0.341159;66.5;NaN;;26.4;;0 / 33;1817;2021-10-20 19:25:10:307
8.775;-3.93;0.713;-8.0493;-5.3295;-1.719;-0.6172;7.3959;-1.1104;-0.0406;0.0231;0.6947;0.0;-43.74;5.94;14.04;319.55;32.92;102.06;0.0;63.26;39.468956;-0.341159;66.5;NaN;;26.4;;0 / 33;1866;2021-10-20 19:25:10:356
8.775;-3.93;0.713;-9.5624;-1.8196;-1.1971;-0.5682;-1.3888;-1.5237;-0.0406;0.0231;0.6947;0.0;-43.74;5.94;14.04;319.55;32.92;102.06;0.0;63.26;39.468956;-0.341159;66.5;NaN;;26.4;;0 / 33;1916;2021-10-20 19:25:10:406
9.828;-12.19;-3.7811;-3.0598;-9.2608;1.0295;-2.2118;6.0338;3.0327;-0.2641;0.249;2.0721;0.0;-43.09;7.61;15.19;307.34;10.69;97.14;0.0;63.26;39.468956;-0.341159;66.5;NaN;;26.4;;0 / 33;1966;2021-10-20 19:25:10:456
4.641;-3.774;0.854;-6.2537;-7.5369;0.4836;2.4773;-2.9415;-1.5933;0.045;0.0275;1.0091;0.0;-42.11;12.71;14.04;0.15;70.78;71.4;0.0;63.26;39.468956;-0.341159;66.5;NaN;;26.4;;0 / 33;2016;2021-10-20 19:25:10:506
1.914;-10.062;-6.999;-8.8633;-0.9146;-4.0941;2.4773;-2.9415;-1.5933;0.045;0.0275;1.0091;0.0;-42.11;12.71;14.04;0.15;70.78;71.4;0.0;63.26;39.468956;-0.341159;66.5;NaN;;26.4;;0 / 33;2066;2021-10-20 19:25:10:556
-0.2359;-6.1541;1.493;-9.1937;2.49;-2.3415;5.8437;-2.4235;-0.3431;-0.9228;0.1474;1.243;0.0;-40.39;17.1;15.54;302.17;5.35;114.79;0.0;63.804;39.468956;-0.341159;66.5;NaN;;26.4;;0 / 33;2116;2021-10-20 19:25:10:606
8.1791;-8.9329;-0.4519;-9.1937;2.49;-2.3415;5.8437;-2.4235;-0.3431;-0.9228;0.1474;1.243;0.0;-36.66;22.5;17.46;299.03;-14.71;104.29;0.0;63.804;39.468956;-0.341159;66.5;NaN;;26.4;;0 / 33;2166;2021-10-20 19:25:10:656
0.411;-14.613;-4.255;-9.2081;0.6321;-3.3136;-3.197;0.5862;-0.9443;-0.6684;0.1607;1.9305;0.0;-36.66;22.5;17.46;299.03;-14.71;104.29;0.0;63.804;39.468956;-0.341159;66.5;NaN;;26.4;;0 / 33;2217;2021-10-20 19:25:10:707
0.411;-14.613;-4.255;-9.5816;0.407;-2.059;4.5342;9.9233;2.3721;-0.2567;-0.1452;1.7445;0.0;-31.2;27.84;19.39;316.98;-2.38;102.13;0.0;63.804;39.468956;-0.341159;66.5;NaN;;26.4;;0 / 33;2266;2021-10-20 19:25:10:756
-1.333;-19.402;-6.738;-9.4332;0.8284;-2.5426;4.5342;9.9233;2.3721;-0.2567;-0.1452;1.7445;0.0;-28.39;30.06;21.06;315.52;-4.85;105.09;0.0;63.804;39.468956;-0.341159;66.5;NaN;;26.4;;0 / 33;2317;2021-10-20 19:25:10:807
1.515;-23.553;-0.667;-9.2608;1.2833;-2.9688;3.4831;13.8168;1.8862;-0.316;-0.2556;1.636;0.0;-28.39;30.06;21.06;315.52;-4.85;105.09;0.0;63.804;39.468956;-0.341159;66.5;NaN;;26.4;;0 / 33;2367;2021-10-20 19:25:10:857
-6.479;-2.3239;1.977;5.3103;6.3973;5.2002;8.018;-7.1273;-4.1215;-0.1943;-0.4067;1.4547;0.0;-31.01;24.19;23.34;303.61;-7.52;107.77;0.0;65.359;39.468956;-0.341159;66.5;NaN;;26.4;;0 / 33;2417;2021-10-20 19:25:10:907
0.969;2.534;-0.911;5.3103;6.3973;5.2002;8.018;-7.1273;-4.1215;-0.1943;-0.4067;1.4547;0.0;-31.01;24.19;23.34;303.61;-7.52;107.77;0.0;65.359;39.468956;-0.341159;66.5;NaN;;26.4;;0 / 33;2466;2021-10-20 19:25:10:956
0.9761;-0.1481;-2.9321;3.5051;-8.2983;-3.8738;-0.6872;-12.0893;-1.2866;-0.6049;-0.44;2.8134;0.0;-33.9;18.06;24.84;198.37;57.81;-137.86;0.0;65.359;39.468956;-0.341159;66.5;NaN;;26.4;;0 / 33;2517;2021-10-20 19:25:11:007
0.9761;-0.1481;-2.9321;-3.6871;-8.9352;1.6376;-3.457;-8.5417;-0.9011;-0.6049;-0.44;2.8134;0.0;-34.31;18.24;23.34;350.73;65.7;66.05;0.0;65.359;39.468956;-0.341159;66.5;NaN;;26.4;;0 / 33;2566;2021-10-20 19:25:11:056
4.452;-10.6661;-0.1669;-9.1985;-1.1827;-3.1987;-4.6662;6.7694;-0.4338;-9.9826;3.0114;6.6503;0.0;-34.31;18.24;23.34;350.73;65.7;66.05;0.0;65.359;39.468956;-0.341159;66.5;NaN;;26.4;;0 / 33;2617;2021-10-20 19:25:11:107
3.1661;-18.21;-6.13;-9.7109;0.7278;-1.1444;-4.6662;6.7694;-0.4338;1.2915;0.8097;-2.398;0.0;-32.46;24.19;19.09;313.19;6.92;109.17;0.0;65.359;39.468956;-0.341159;66.5;NaN;;26.4;;0 / 33;2666;2021-10-20 19:25:11:156
-6.699;-11.6231;3.669;-5.6455;7.4891;2.8683;3.7275;8.7284;-4.3504;1.2915;0.8097;-2.398;0.0;-28.8;32.21;10.69;313.19;6.92;109.17;0.0;65.359;39.468956;-0.341159;66.5;NaN;;26.4;;0 / 33;2717;2021-10-20 19:25:11:207
5.885;-29.389;-2.649;-5.6455;7.4891;2.8683;3.7275;8.7284;-4.3504;1.8711;0.5136;0.2756;0.0;-28.8;32.21;10.69;313.19;6.92;109.17;0.0;65.485;39.468956;-0.341159;66.5;NaN;;26.4;;0 / 33;2766;2021-10-20 19:25:11:256
-5.325;-5.0959;24.293;-8.0349;-3.7924;-4.1515;-6.9501;20.211;-0.6712;1.7208;0.6947;0.0056;0.0;-24.9;37.26;3.66;340.31;22.75;117.32;0.0;65.485;39.468956;-0.341159;66.5;NaN;;26.4;;0 / 33;2817;2021-10-20 19:25:11:307
-5.325;-5.0959;24.293;-2.083;1.6664;-9.4379;4.327;-4.3904;-26.5757;1.7208;0.6947;0.0056;0.0;-24.9;37.26;3.66;340.31;22.75;117.32;0.0;65.485;39.468956;-0.341159;66.5;NaN;;26.4;;0 / 33;2867;2021-10-20 19:25:11:357
2.297;-5.289;3.015;-4.5155;-4.0223;-7.7189;-1.9331;-8.1814;1.1059;1.05;0.8977;-0.6329;0.0;-25.26;36.49;5.89;324.14;-9.78;167.55;0.0;65.485;39.468956;-0.341159;66.5;NaN;;26.4;;0 / 33;2916;2021-10-20 19:25:11:406
5.6561;-4.0811;-0.756;-8.7388;-4.2904;-1.1732;-1.9331;-8.1814;1.1059;1.05;0.8977;-0.6329;0.0;-28.2;33.49;9.6;341.7;25.95;97.65;0.0;65.485;39.468956;-0.341159;66.5;NaN;;26.4;;0 / 33;2967;2021-10-20 19:25:11:457
-2.223;-9.126;-0.684;-9.6917;-0.3831;1.4317;-3.8754;-2.2437;0.0924;0.8452;0.133;-0.8254;0.0;-28.2;33.49;9.6;341.7;25.95;97.65;0.0;65.485;39.468956;-0.341159;66.5;NaN;;26.4;;0 / 33;3016;2021-10-20 19:25:11:506
1.11;-6.876;-2.776;-9.6917;-0.3831;1.4317;0.0516;-3.5132;-2.4352;-0.3024;0.9699;-1.0131;0.0;-28.99;31.39;11.1;348.33;2.24;81.6;0.0;66.12;39.468956;-0.341159;66.5;NaN;;26.4;;0 / 33;3067;2021-10-20 19:25:11:557
2.714;-8.3441;-2.331;-8.8825;-0.0287;-4.1563;-0.3392;-1.2936;0.8877;-0.3024;0.9699;-1.0131;0.0;-28.99;31.39;11.1;348.33;2.24;81.6;0.0;66.12;39.468956;-0.341159;66.5;NaN;;26.4;;0 / 33;3116;2021-10-20 19:25:11:606
2.714;-8.3441;-2.331;-8.4946;-2.4134;-4.2617;-0.3392;-1.2936;0.8877;-0.461;0.4539;0.195;0.0;-28.14;30.9;13.2;348.33;2.24;81.6;0.0;66.12;39.468956;-0.341159;66.5;NaN;;26.4;;0 / 33;3167;2021-10-20 19:25:11:657
2.592;-16.753;-7.3811;-9.4092;0.4836;-2.7246;-1.6786;7.228;5.1602;-0.7538;0.4298;-0.0759;0.0;-26.76;29.4;17.76;318.4;-2.83;106.15;0.0;66.12;39.468956;-0.341159;66.5;NaN;;26.4;;0 / 33;3217;2021-10-20 19:25:11:707
-1.864;-11.716;-2.836;-9.3613;-1.2593;-2.6432;2.7327;2.2752;0.3204;-0.7538;0.4298;-0.0759;0.0;-26.76;29.4;17.76;318.4;-2.83;106.15;0.0;66.12;39.468956;-0.341159;66.5;NaN;;26.4;;0 / 33;3266;2021-10-20 19:25:11:756
1.5701;-10.4479;-5.6479;-8.5617;-1.0151;-4.6783;2.7327;2.2752;0.3204;-0.2527;-0.7309;-0.0195;0.0;-25.44;25.69;24.0;313.17;7.38;105.77;0.0;66.12;39.468956;-0.341159;66.5;NaN;;26.4;;0 / 33;3317;2021-10-20 19:25:11:807
-1.002;-5.2991;-1.685;-9.5577;1.3695;-1.7286;-0.2693;-1.1291;1.7475;-0.2717;-1.2281;0.0694;0.0;-24.84;22.74;27.6;303.02;5.94;118.65;0.0;66.12;39.468956;-0.341159;66.5;NaN;;26.4;;0 / 33;3367;2021-10-20 19:25:11:857
0.813;-3.126;-0.8801;-9.5577;1.3695;-1.7286;0.3903;-5.6612;-2.3504;-0.2717;-1.2281;0.0694;0.0;-24.84;22.74;27.6;303.02;5.94;118.65;0.0;60.512;39.468956;-0.341159;66.5;NaN;;26.4;;0 / 33;3416;2021-10-20 19:25:11:906
0.813;-3.126;-0.8801;-8.5042;-1.6568;-4.6017;0.3903;-5.6612;-2.3504;-0.3355;-1.1813;-0.4174;0.0;-24.84;23.81;26.16;306.02;9.72;118.42;0.0;60.512;39.468956;-0.341159;66.5;NaN;;26.4;;0 / 33;3466;2021-10-20 19:25:11:956
0.33;-6.711;-1.287;-9.1937;-0.0814;-3.4189;0.1332;-5.0723;-2.6196;-0.3355;-1.1813;-0.4174;0.0;-24.84;23.81;26.16;306.02;9.72;118.42;0.0;60.512;39.468956;-0.341159;66.5;NaN;;26.4;;0 / 33;3516;2021-10-20 19:25:12:006
1.73;-10.043;-7.405;-8.6526;0.6704;-4.5681;-1.2627;0.7738;4.2143;0.0793;-1.035;-0.3334;0.0;-24.24;27.3;22.14;306.02;9.72;118.42;0.0;60.512;39.468956;-0.341159;66.5;NaN;;26.4;;0 / 33;3566;2021-10-20 19:25:12:056
-3.035;-19.398;3.59;-8.6526;0.6704;-4.5681;3.41;10.1919;-6.9463;0.1104;-0.287;0.2479;0.0;-23.04;30.49;19.5;315.75;-3.92;117.83;0.0;60.512;39.468956;-0.341159;66.5;NaN;;26.4;;0 / 33;3617;2021-10-20 19:25:12:107
8.31;-17.37;4.152;-8.9016;-1.2881;-3.9169;3.41;10.1919;-6.9463;0.1104;-0.287;0.2479;0.0;-23.04;30.49;19.5;315.75;-3.92;117.83;0.0;60.512;39.468956;-0.341159;66.5;NaN;;26.4;;0 / 33;3667;2021-10-20 19:25:12:157
0.9281;-9.667;1.266;-9.6965;-1.4653;0.1101;-1.1212;4.8924;1.9462;0.7241;-0.448;-0.2534;0.0;-22.56;31.26;19.69;319.64;7.54;113.75;0.0;60.498;39.468956;-0.341159;66.5;NaN;;26.4;;0 / 33;3716;2021-10-20 19:25:12:206
0.897;-9.663;-2.721;-9.6391;-1.6759;-0.656;0.1866;0.5908;-2.6045;1.2536;-1.2611;-0.6751;0.0;-22.2;31.39;19.74;327.8;9.84;93.89;0.0;60.498;39.468956;-0.341159;66.5;NaN;;26.4;;0 / 33;3767;2021-10-20 19:25:12:257
0.897;-9.663;-2.721;-8.8538;-1.8387;-3.7972;-0.059;-0.7082;1.6299;1.2536;-1.2611;-0.6751;0.0;-22.2;31.39;19.74;327.8;9.84;93.89;0.0;60.498;39.468956;-0.341159;66.5;NaN;;26.4;;0 / 33;3817;2021-10-20 19:25:12:307
2.3381;-6.893;-3.078;-8.8107;-2.4229;-3.5674;-1.4978;-3.4362;0.6704;0.1482;-0.2596;-0.3734;0.0;-21.66;32.64;17.94;324.13;10.81;113.21;0.0;60.498;39.468956;-0.341159;66.5;NaN;;26.4;;0 / 33;3867;2021-10-20 19:25:12:357
2.0801;-8.1499;-3.535;-8.8107;-2.4229;-3.5674;-1.4978;-3.4362;0.6704;0.1482;-0.2596;-0.3734;0.0;-21.66;32.64;17.94;324.13;10.81;113.21;0.0;60.498;39.468956;-0.341159;66.5;NaN;;26.4;;0 / 33;3916;2021-10-20 19:25:12:406
1.941;-3.999;1.586;-9.2177;-2.1835;2.5522;-0.4593;-2.6026;-4.0617;-0.8228;0.9779;-0.2456;0.0;-20.7;33.54;17.34;326.84;14.3;112.04;0.0;60.498;39.468956;-0.341159;66.5;NaN;;26.4;;0 / 33;3967;2021-10-20 19:25:12:457
3.138;-11.07;-2.874;-9.007;-2.4565;-3.0023;-0.9855;-0.0104;1.0589;0.2805;-0.7098;-0.8222;0.0;-19.56;33.66;18.41;327.15;14.51;108.43;0.0;56.811;39.468956;-0.341159;66.5;NaN;;26.4;;0 / 33;4017;2021-10-20 19:25:12:507
6.0311;-13.684;-4.5229;-8.9687;-3.5099;-1.834;-2.0205;0.487;0.0783;0.2805;-0.7098;-0.8222;0.0;-19.56;33.66;18.41;327.15;14.51;108.43;0.0;56.811;39.468956;-0.341159;66.5;NaN;;26.4;;0 / 33;4066;2021-10-20 19:25:12:556
6.0311;-13.684;-4.5229;-9.0692;-2.7342;-2.5426;-2.0205;0.487;0.0783;0.4923;-1.3255;-0.9067;0.0;-17.16;33.79;20.16;327.62;20.98;101.56;0.0;56.811;39.468956;-0.341159;66.5;NaN;;26.4;;0 / 33;4116;2021-10-20 19:25:12:606
0.533;-15.831;-0.593;-9.754;0.8428;0.5555;1.7426;6.5082;-1.4548;0.1437;-0.6593;-0.0144;0.0;-15.0;31.44;24.41;327.62;20.98;101.56;0.0;56.811;39.468956;-0.341159;66.5;NaN;;26.4;;0 / 33;4167;2021-10-20 19:25:12:657
1.632;-14.833;-1.2799;-9.754;0.8428;0.5555;0.4809;5.4575;-0.6986;0.1437;-0.6593;-0.0144;0.0;-15.0;31.44;24.41;327.62;20.98;101.56;0.0;56.811;39.468956;-0.341159;66.5;NaN;;26.4;;0 / 33;4217;2021-10-20 19:25:12:707
-0.143;-13.986;-3.236;-9.3613;-1.3408;-2.6097;0.4809;5.4575;-0.6986;0.3378;-0.908;0.3637;0.0;-12.79;26.4;30.41;309.15;7.86;105.58;0.0;56.811;39.468956;-0.341159;66.5;NaN;;26.4;;0 / 33;4267;2021-10-20 19:25:12:757
-0.5089;-5.8301;0.777;-9.7971;-0.4549;0.1437;1.7855;1.2032;-0.6829;0.3378;-0.908;0.3637;0.0;-12.79;26.4;30.41;309.15;7.86;105.58;0.0;56.811;39.468956;-0.341159;66.5;NaN;;26.4;;0 / 33;4316;2021-10-20 19:25:12:806
-1.278;-4.447;-1.2731;-9.5002;2.3942;-0.407;2.3634;-4.8384;-1.4715;0.4201;-1.1818;0.3399;0.0;-10.39;22.91;34.2;304.73;2.66;89.16;0.0;58.519;39.468956;-0.341159;66.5;NaN;;26.4;;0 / 33;4367;2021-10-20 19:25:12:857
-1.278;-4.447;-1.2731;-9.0836;2.0207;-3.1029;2.3634;-4.8384;-1.4715;0.3992;-0.9027;0.8892;0.0;-6.71;21.71;35.7;298.88;-14.13;92.45;0.0;58.519;39.468956;-0.341159;66.5;NaN;;26.4;;0 / 33;4417;2021-10-20 19:25:12:907
-1.06;-7.973;-5.646;-9.0836;2.0207;-3.1029;1.9721;-3.4862;0.5919;0.3992;-0.9027;0.8892;0.0;-6.71;21.71;35.7;298.88;-14.13;92.45;0.0;58.519;39.468956;-0.341159;66.5;NaN;;26.4;;0 / 33;4467;2021-10-20 19:25:12:957
1.268;-11.353;-3.363;-9.3518;-1.0439;-2.7629;-0.9437;1.7808;1.211;-1.0736;-1.1697;-0.275;0.0;-2.89;22.8;34.86;298.88;-14.13;92.45;0.0;58.519;39.468956;-0.341159;66.5;NaN;;26.4;;0 / 33;4517;2021-10-20 19:25:13:007
3.3911;-16.2259;2.166;-9.5193;-1.9824;1.2689;-2.8862;6.805;-4.8585;-0.5406;-1.8419;-0.9328;0.0;-0.71;23.59;34.26;306.25;11.66;82.41;0.0;58.519;39.468956;-0.341159;66.5;NaN;;26.4;;0 / 33;4567;2021-10-20 19:25:13:057
-2.8811;-8.645;-1.1959;-9.2273;3.0694;-1.2641;-2.8862;6.805;-4.8585;-0.5406;-1.8419;-0.9328;0.0;-0.71;23.59;34.26;306.25;11.66;82.41;0.0;58.519;39.468956;-0.341159;66.5;NaN;;26.4;;0 / 33;4617;2021-10-20 19:25:13:107
1.338;-8.7791;-0.033;-9.6965;-1.4748;-0.0287;-4.472;4.2147;-0.9507;0.5437;-1.3757;-0.2835;0.0;-0.9;23.94;34.74;304.55;-18.24;97.8;0.0;59.338;39.468956;-0.341159;66.5;NaN;;26.4;;0 / 33;4667;2021-10-20 19:25:13:157
1.338;-8.7791;-0.033;-9.6965;-1.4748;-0.0287;-0.9929;-0.5661;-1.2101;0.5437;-1.3757;-0.2835;0.0;-0.9;23.94;34.74;304.55;-18.24;97.8;0.0;59.338;39.468956;-0.341159;66.5;NaN;;26.4;;0 / 33;4716;2021-10-20 19:25:13:206
3.2291;-11.348;-1.938;-9.3087;-2.648;-1.585;-0.9929;-0.5661;-1.2101;0.5437;-1.3757;-0.2835;0.0;0.06;26.04;34.01;307.07;8.65;90.17;0.0;59.338;39.468956;-0.341159;66.5;NaN;;26.4;;0 / 33;4766;2021-10-20 19:25:13:256
1.055;-8.238;-1.838;-9.5002;-1.2115;-2.1069;-0.1876;-1.4264;0.3261;0.5437;-1.3757;-0.2835;0.0;3.0;28.61;31.5;307.07;8.65;90.17;0.0;59.338;39.468956;-0.341159;66.5;NaN;;26.4;;0 / 33;4816;2021-10-20 19:25:13:306
2.285;-9.478;-3.396;-9.0022;-2.1644;-3.2274;-1.1249;-0.154;1.8742;0.5437;-1.3757;-0.2835;0.0;3.0;28.61;31.5;307.07;8.65;90.17;0.0;59.338;39.468956;-0.341159;66.5;NaN;;26.4;;0 / 33;4867;2021-10-20 19:25:13:357
2.1251;-7.6331;-1.122;-9.3565;-2.6049;-1.3695;-1.1249;-0.154;1.8742;0.5437;-1.3757;-0.2835;0.0;4.86;30.9;28.56;316.55;12.75;109.72;0.0;59.338;39.468956;-0.341159;66.5;NaN;;26.4;;0 / 33;4917;2021-10-20 19:25:13:407
2.106;-8.3629;-1.158;-9.4284;-2.3655;-1.3072;0.3833;-1.2143;0.403;0.5437;-1.3757;-0.2835;0.0;6.41;32.04;26.7;317.53;15.4;98.33;0.0;57.477;39.468956;-0.341159;66.5;NaN;;26.4;;0 / 33;4966;2021-10-20 19:25:13:456
3.887;-6.96;-1.1771;-8.4755;-4.7262;-1.4269;-1.5844;-2.5057;-0.6618;0.5437;-1.3757;-0.2835;0.0;8.59;31.8;26.1;317.53;15.4;98.33;0.0;57.477;39.468956;-0.341159;66.5;NaN;;26.4;;0 / 33;5052;2021-10-20 19:25:13:542
3.887;-6.96;-1.1771;-8.4755;-4.7262;-1.4269;-1.5844;-2.5057;-0.6618;0.5437;-1.3757;-0.2835;0.0;8.59;31.8;26.1;317.53;15.4;98.33;0.0;57.477;39.468956;-0.341159;66.5;NaN;;26.4;;0 / 33;5067;2021-10-20 19:25:13:557
2.3051;-8.8369;-2.793;-9.074;-2.3655;-2.8683;-1.5964;-0.6738;-0.7113;0.5437;-1.3757;-0.2835;0.0;8.59;31.8;26.1;317.53;15.4;98.33;0.0;57.477;39.468956;-0.341159;66.5;NaN;;26.4;;0 / 33;5116;2021-10-20 19:25:13:606
4.1741;-13.5499;-4.816;-8.8777;-2.7342;-3.1508;-1.5387;4.2249;3.223;0.6439;-1.4175;-0.8686;0.0;11.16;30.49;26.1;318.99;13.96;107.54;0.0;57.477;39.468956;-0.341159;66.5;NaN;;26.4;;0 / 33;5167;2021-10-20 19:25:13:657
-0.2771;-19.9309;-0.667;-8.8777;-2.7342;-3.1508;-1.5387;4.2249;3.223;0.3574;-0.8958;-0.0819;0.0;13.8;29.21;25.61;318.99;13.96;107.54;0.0;57.477;39.468956;-0.341159;66.5;NaN;;26.4;;0 / 33;5217;2021-10-20 19:25:13:707
2.532;-16.099;-5.96;-9.7157;-0.2538;-1.312;2.8675;10.5984;-0.902;0.3574;-0.8958;-0.0819;0.0;13.8;29.21;25.61;318.99;13.96;107.54;0.0;56.671;39.468956;-0.341159;66.5;NaN;;26.4;;0 / 33;5266;2021-10-20 19:25:13:756
3.24;-8.765;-1.146;-9.2273;-1.6041;-2.9066;-0.6824;6.683;3.505;0.0253;-0.5185;0.5407;0.0;14.46;28.01;26.34;319.56;9.41;107.48;0.0;56.671;39.468956;-0.341159;66.5;NaN;;26.4;;0 / 33;5316;2021-10-20 19:25:13:806
3.24;-8.765;-1.146;-9.5624;1.8148;1.1875;-0.6824;6.683;3.505;-0.0654;-0.558;0.2677;0.0;13.69;27.19;26.7;314.97;-10.67;82.92;0.0;56.671;39.468956;-0.341159;66.5;NaN;;26.4;;0 / 33;5367;2021-10-20 19:25:13:857
-1.713;-6.261;0.888;-8.9208;3.5099;2.0686;2.9806;-3.2414;-2.4576;-0.0654;-0.558;0.2677;0.0;13.69;27.19;26.7;314.97;-10.67;82.92;0.0;56.671;39.468956;-0.341159;66.5;NaN;;26.4;;0 / 33;5416;2021-10-20 19:25:13:906
-1.3451;-3.951;0.0551;-8.9208;3.5099;2.0686;3.2552;-5.2568;-2.5969;0.4225;0.3113;0.5944;0.0;14.21;28.74;24.11;318.52;-20.97;76.94;0.0;56.671;39.468956;-0.341159;66.5;NaN;;26.4;;0 / 33;5466;2021-10-20 19:25:13:956
-2.29;-9.742;-3.6791;-9.5385;0.2107;-2.2745;2.911;0.0022;2.685;0.3374;1.3531;1.7326;0.0;14.21;28.74;24.11;318.52;-20.97;76.94;0.0;56.671;39.468956;-0.341159;66.5;NaN;;26.4;;0 / 33;5517;2021-10-20 19:25:14:007
4.1;-15.252;-10.1651;-7.8434;-1.8723;-5.5785;2.911;0.0022;2.685;0.3374;1.3531;1.7326;0.0;15.19;31.99;19.2;318.52;-20.97;76.94;0.0;56.671;39.468956;-0.341159;66.5;NaN;;26.4;;0 / 33;5566;2021-10-20 19:25:14:056
-6.048;-1.3571;3.54;-6.5984;-3.0742;6.5745;-4.4622;7.309;9.0249;-1.4299;-3.5757;-1.4473;0.0;15.96;34.31;15.84;324.97;18.26;45.1;0.0;60.57;39.468956;-0.341159;66.5;NaN;;26.4;;0 / 33;5617;2021-10-20 19:25:14:107
-6.048;-1.3571;3.54;-7.6423;-5.2625;3.1795;6.7057;-8.2827;8.4616;-1.4299;-3.5757;-1.4473;0.0;15.96;34.31;15.84;324.97;18.26;45.1;0.0;60.57;39.468956;-0.341159;66.5;NaN;;26.4;;0 / 33;5666;2021-10-20 19:25:14:156
6.3551;-19.323;-1.397;-9.2847;2.0877;-2.375;6.7057;-8.2827;8.4616;-0.1699;-2.1222;-1.0021;0.0;15.41;35.29;15.66;324.97;18.26;45.1;0.0;60.57;39.468956;-0.341159;66.5;NaN;;26.4;;0 / 33;5717;2021-10-20 19:25:14:207
-1.474;-7.164;-1.732;-9.2847;2.0877;-2.375;2.7007;-2.1221;-0.228;1.2733;0.5732;0.054;0.0;15.36;36.3;13.86;345.83;-12.29;104.35;0.0;60.57;39.468956;-0.341159;66.5;NaN;;26.4;;0 / 33;5767;2021-10-20 19:25:14:257
3.537;-10.548;-1.548;-9.2656;-3.0885;-0.905;-2.9113;2.2709;-0.6694;1.2733;0.5732;0.054;0.0;15.36;36.3;13.86;345.83;-12.29;104.35;0.0;60.57;39.468956;-0.341159;66.5;NaN;;26.4;;0 / 33;5817;2021-10-20 19:25:14:307
2.4431;-8.796;-1.321;-9.5289;-1.4988;-1.7717;-2.9113;2.2709;-0.6694;0.2903;-0.9718;-0.4719;0.0;15.6;37.31;10.61;346.88;8.79;100.53;0.0;60.57;39.468956;-0.341159;66.5;NaN;;26.4;;0 / 33;5866;2021-10-20 19:25:14:356
3.516;-7.836;-3.26;-8.8059;-3.2801;-2.806;-1.1754;-0.7971;-0.3527;0.2861;-1.3069;-0.8558;0.0;15.6;37.31;10.61;346.88;8.79;100.53;0.0;62.033;39.468956;-0.341159;66.5;NaN;;26.4;;0 / 33;5917;2021-10-20 19:25:14:407
3.516;-7.836;-3.26;-8.6191;-2.7246;-3.8068;-1.2004;-2.1663;1.122;0.2861;-1.3069;-0.8558;0.0;16.09;37.91;8.04;346.88;8.79;100.53;0.0;62.033;39.468956;-0.341159;66.5;NaN;;26.4;;0 / 33;5966;2021-10-20 19:25:14:456
1.122;-6.5869;-3.269;-9.5529;0.8428;-2.0399;2.9609;-3.881;-0.8104;-0.0172;-1.9992;-0.9758;0.0;19.44;37.5;8.04;0.67;16.13;113.83;0.0;62.033;39.468956;-0.341159;66.5;NaN;;26.4;;0 / 33;6016;2021-10-20 19:25:14:506
2.735;-8.114;-1.041;-9.5529;0.8428;-2.0399;2.9609;-3.881;-0.8104;-0.0172;-1.9992;-0.9758;0.0;19.44;37.5;8.04;0.67;16.13;113.83;0.0;62.033;39.468956;-0.341159;66.5;NaN;;26.4;;0 / 33;6067;2021-10-20 19:25:14:557
0.627;-6.3191;-2.058;-9.1363;-2.1979;-2.8156;0.5363;-2.4392;-0.1449;-0.0738;-1.6186;-0.5266;0.0;19.99;37.44;8.34;356.79;12.95;107.13;0.0;62.033;39.468956;-0.341159;66.5;NaN;;26.4;;0 / 33;6117;2021-10-20 19:25:14:607
3.848;-12.492;-3.6949;-9.0214;-2.7725;-2.6671;-0.9253;0.0566;2.1981;0.0118;-0.9038;-0.1246;0.0;20.16;37.56;10.5;356.79;12.95;107.13;0.0;62.033;39.468956;-0.341159;66.5;NaN;;26.4;;0 / 33;6166;2021-10-20 19:25:14:656
0.141;-19.965;-7.1921;-9.2273;-0.0622;-3.3232;-0.9253;0.0566;2.1981;0.0118;-0.9038;-0.1246;0.0;20.16;37.56;10.5;356.79;12.95;107.13;0.0;58.405;39.468956;-0.341159;66.5;NaN;;26.4;;0 / 33;6216;2021-10-20 19:25:14:706
0.141;-19.965;-7.1921;-9.2273;-0.0622;-3.3232;2.0798;10.767;4.5718;-0.2929;-0.8422;-0.0289;0.0;19.99;37.39;12.9;351.58;0.36;109.81;0.0;58.405;39.468956;-0.341159;66.5;NaN;;26.4;;0 / 33;6267;2021-10-20 19:25:14:757
0.45;-10.857;-4.5761;-9.0357;-0.3735;-3.7972;1.5324;1.681;1.7216;-0.2586;-0.238;0.3831;0.0;19.99;37.39;12.9;351.58;0.36;109.81;0.0;58.405;39.468956;-0.341159;66.5;NaN;;26.4;;0 / 33;6316;2021-10-20 19:25:14:806
0.636;-7.314;-2.843;-9.1171;-0.7805;-3.5386;1.5324;1.681;1.7216;-0.2586;-0.238;0.3831;0.0;19.09;37.01;15.49;349.84;2.18;112.79;0.0;58.405;39.468956;-0.341159;66.5;NaN;;26.4;;0 / 33;6366;2021-10-20 19:25:14:856
-0.9641;-3.949;-0.4451;-9.6247;1.5754;-1.0391;1.3788;-2.7448;-1.2319;-0.2058;0.0958;0.7288;0.0;18.0;37.31;15.41;349.84;2.18;112.79;0.0;58.405;39.468956;-0.341159;66.5;NaN;;26.4;;0 / 33;6416;2021-10-20 19:25:14:906
0.6101;-3.628;-1.132;-8.4946;-2.0877;-4.4293;1.0758;-5.855;-2.4217;0.1357;0.8381;0.8377;0.0;18.0;37.31;15.41;349.84;2.18;112.79;0.0;58.405;39.468956;-0.341159;66.5;NaN;;26.4;;0 / 33;6466;2021-10-20 19:25:14:956
0.7421;-6.8239;-1.488;-8.4946;-2.0877;-4.4293;-0.0657;-4.2032;0.1017;0.1357;0.8381;0.8377;0.0;17.94;38.29;12.96;354.36;12.29;117.54;0.0;58.405;39.468956;-0.341159;66.5;NaN;;26.4;;0 / 33;6516;2021-10-20 19:25:15:006
1.148;-10.747;-6.1751;-9.6774;-1.3743;-0.814;-0.2199;1.9968;0.455;0.2383;0.712;0.235;0.0;18.36;39.66;8.21;354.36;12.29;117.54;0.0;59.083;39.468956;-0.341159;66.5;NaN;;26.4;;0 / 33;6567;2021-10-20 19:25:15:057
1.148;-10.747;-6.1751;-7.2927;-1.9824;-6.2537;-0.2199;1.9968;0.455;0.2383;0.712;0.235;0.0;18.36;39.66;8.21;354.36;12.29;117.54;0.0;59.083;39.468956;-0.341159;66.5;NaN;;26.4;;0 / 33;6617;2021-10-20 19:25:15:107
-0.057;-18.703;-3.9851;-9.3805;2.241;-1.7813;0.9887;9.453;0.8504;-0.252;-1.4113;-0.7963;0.0;18.9;39.66;2.81;15.71;11.66;130.61;0.0;59.083;39.468956;-0.341159;66.5;NaN;;26.4;;0 / 33;6667;2021-10-20 19:25:15:157
4.0421;-10.7779;5.8211;-8.7293;-4.4724;0.0144;0.9887;9.453;0.8504;0.8676;-0.1085;0.1621;0.0;18.9;39.66;2.81;15.71;11.66;130.61;0.0;59.083;39.468956;-0.341159;66.5;NaN;;26.4;;0 / 33;6716;2021-10-20 19:25:15:206
1.3811;-11.865;-3.2291;-9.2991;-0.9864;2.9592;-8.4638;8.7022;-2.7042;0.8676;-0.1085;0.1621;0.0;18.96;38.94;0.84;357.73;27.13;89.91;0.0;59.083;39.468956;-0.341159;66.5;NaN;;26.4;;0 / 33;6766;2021-10-20 19:25:15:256
0.198;-9.395;-1.8431;-9.2991;-0.9864;2.9592;-0.0545;0.2149;-5.167;1.2059;0.6764;-0.1231;0.0;18.71;38.7;0.19;351.14;5.77;72.35;0.0;59.083;39.468956;-0.341159;66.5;NaN;;26.4;;0 / 33;6817;2021-10-20 19:25:15:307
2.958;-6.9101;-1.565;-9.6247;-1.2785;-1.3695;-0.6042;-1.4225;-0.0957;0.2827;-0.6835;-0.5466;0.0;18.71;38.7;0.19;351.14;5.77;72.35;0.0;58.54;39.468956;-0.341159;66.5;NaN;;26.4;;0 / 33;6867;2021-10-20 19:25:15:357
2.958;-6.9101;-1.565;-7.7093;-5.8179;-1.7047;-0.6042;-1.4225;-0.0957;0.2827;-0.6835;-0.5466;0.0;19.44;38.76;0.3;4.23;7.49;98.1;0.0;58.54;39.468956;-0.341159;66.5;NaN;;26.4;;0 / 33;6916;2021-10-20 19:25:15:406
4.014;-6.173;-2.628;-8.4036;-3.4716;-3.6727;-2.3688;-3.3955;1.2023;-0.1166;-0.8075;-0.8386;0.0;19.56;39.3;2.34;4.23;7.49;98.1;0.0;58.54;39.468956;-0.341159;66.5;NaN;;26.4;;0 / 33;6967;2021-10-20 19:25:15:457
1.175;-8.3051;-0.0019;-9.754;-0.8619;-0.565;0.9687;-1.1355;-1.6307;-0.1166;-0.8075;-0.8386;0.0;19.56;39.3;2.34;4.23;7.49;98.1;0.0;58.54;39.468956;-0.341159;66.5;NaN;;26.4;;0 / 33;7016;2021-10-20 19:25:15:506
2.913;-5.744;-2.001;-9.0597;-2.897;-2.3894;-0.4396;-3.5866;0.1902;-0.2375;-0.4478;-0.8195;0.0;18.79;39.11;4.61;354.02;5.04;93.32;0.0;58.54;39.468956;-0.341159;66.5;NaN;;26.4;;0 / 33;7067;2021-10-20 19:25:15:557
3.444;-11.6231;-5.562;-9.0597;-2.897;-2.3894;-0.4396;-3.5866;0.1902;-0.2421;-0.1757;-0.0436;0.0;18.79;39.11;4.61;354.02;5.04;93.32;0.0;58.54;39.468956;-0.341159;66.5;NaN;;26.4;;0 / 33;7116;2021-10-20 19:25:15:606
3.087;-18.182;-7.472;-8.8059;-3.0742;-3.0311;-2.7081;5.6963;3.1111;-0.2421;-0.1757;-0.0436;0.0;18.54;39.0;6.54;356.48;17.18;104.77;0.0;55.577;39.468956;-0.341159;66.5;NaN;;26.4;;0 / 33;7167;2021-10-20 19:25:15:657
3.087;-18.182;-7.472;-9.1842;0.1867;-3.4333;-2.7081;5.6963;3.1111;-0.5441;-0.3899;-0.2155;0.0;17.7;39.9;9.0;356.48;17.18;104.77;0.0;55.577;39.468956;-0.341159;66.5;NaN;;26.4;;0 / 33;7216;2021-10-20 19:25:15:706
-0.4999;-12.81;-3.683;-9.4523;0.1532;-2.6097;2.971;3.6442;1.2013;-0.5129;-0.455;0.0289;0.0;17.7;39.9;9.0;356.48;17.18;104.77;0.0;55.577;39.468956;-0.341159;66.5;NaN;;26.4;;0 / 33;7266;2021-10-20 19:25:15:756
0.3851;-7.267;-3.185;-9.1363;-1.1588;-3.371;1.817;-1.9014;0.4508;-0.5129;-0.455;0.0289;0.0;15.84;40.01;12.24;349.72;-0.9;105.43;0.0;55.577;39.468956;-0.341159;66.5;NaN;;26.4;;0 / 33;7317;2021-10-20 19:25:15:807
-1.113;-3.363;-0.155;-9.6869;1.5227;0.1053;1.817;-1.9014;0.4508;-0.2645;-0.153;0.9116;0.0;15.0;39.3;13.01;342.13;-8.93;89.38;0.0;55.577;39.468956;-0.341159;66.5;NaN;;26.4;;0 / 33;7367;2021-10-20 19:25:15:857
1.314;-4.392;-2.115;-9.6869;1.5227;0.1053;2.0773;-5.5341;-2.8843;-0.2645;-0.153;0.9116;0.0;15.0;39.3;13.01;342.13;-8.93;89.38;0.0;55.577;39.468956;-0.341159;66.5;NaN;;26.4;;0 / 33;7416;2021-10-20 19:25:15:906
1.227;-5.45;-1.496;-8.0685;-2.059;-5.1763;-1.0597;-4.8556;-0.4372;-0.1009;0.6298;0.7789;0.0;15.66;39.06;10.56;358.96;12.12;122.68;0.0;55.577;39.468956;-0.341159;66.5;NaN;;26.4;;0 / 33;7466;2021-10-20 19:25:15:956
1.227;-5.45;-1.496;-9.2943;-0.8859;-3.0023;-1.0597;-4.8556;-0.4372;-0.0792;0.489;0.1745;0.0;15.66;39.06;10.56;358.96;12.12;122.68;0.0;55.577;39.468956;-0.341159;66.5;NaN;;26.4;;0 / 33;7516;2021-10-20 19:25:16:006
1.656;-12.032;-6.027;-8.9687;-1.0774;-3.8164;-0.4546;2.7526;3.0646;-0.0792;0.489;0.1745;0.0;16.69;39.36;5.81;358.96;12.12;122.68;0.0;60.489;39.468956;-0.341159;66.5;NaN;;26.4;;0 / 33;7566;2021-10-20 19:25:16:056
1.941;-16.113;-2.5969;-8.9687;-1.0774;-3.8164;-0.7068;6.9272;-0.6194;-0.0792;0.489;0.1745;0.0;16.8;39.11;1.26;8.81;6.31;113.05;0.0;60.489;39.468956;-0.341159;66.5;NaN;;26.4;;0 / 33;7617;2021-10-20 19:25:16:107
2.6441;-14.469;3.3311;-9.1123;0.7949;3.5386;-5.2314;7.2188;-0.3496;-0.0792;0.489;0.1745;0.0;16.8;39.11;1.26;8.81;6.31;113.05;0.0;60.489;39.468956;-0.341159;66.5;NaN;;26.4;;0 / 33;7666;2021-10-20 19:25:16:156
2.2691;-8.8489;-3.243;-9.0453;-2.988;-2.3367;-5.2314;7.2188;-0.3496;-0.0792;0.489;0.1745;0.0;16.31;39.36;-0.71;353.09;-4.65;68.78;0.0;60.489;39.468956;-0.341159;66.5;NaN;;26.4;;0 / 33;7717;2021-10-20 19:25:16:207
0.15;-10.05;-4.16;-9.6343;-1.81;0.249;-2.7341;-1.3399;-7.8988;1.2279;1.1562;-0.1441;0.0;16.01;39.36;-0.96;0.95;10.64;88.52;0.0;60.489;39.468956;-0.341159;66.5;NaN;;26.4;;0 / 33;7767;2021-10-20 19:25:16:257
2.652;-8.416;-2.367;-9.3709;-1.1301;-2.6624;0.5368;-1.3073;0.7903;0.2324;-0.5906;-0.5536;0.0;16.01;39.36;-0.96;0.95;10.64;88.52;0.0;60.489;39.468956;-0.341159;66.5;NaN;;26.4;;0 / 33;7817;2021-10-20 19:25:16:307
2.652;-8.416;-2.367;-7.331;-6.1962;-1.9968;0.5368;-1.3073;0.7903;0.2324;-0.5906;-0.5536;0.0;16.14;40.01;-0.49;6.57;6.62;105.86;0.0;56.66;39.468956;-0.341159;66.5;NaN;;26.4;;0 / 33;7867;2021-10-20 19:25:16:357
3.116;-5.6479;-2.4;-7.331;-6.1962;-1.9968;-3.4907;-3.2754;0.224;-0.2155;-0.9321;-0.7381;0.0;16.14;40.01;-0.49;6.57;6.62;105.86;0.0;56.66;39.468956;-0.341159;66.5;NaN;;26.4;;0 / 33;7916;2021-10-20 19:25:16:406
1.5701;-6.501;-0.447;-9.4571;-2.1117;-1.4988;0.7369;-2.8575;-1.3975;-0.2155;-0.9321;-0.7381;0.0;16.01;40.91;1.09;6.57;6.62;105.86;0.0;56.66;39.468956;-0.341159;66.5;NaN;;26.4;;0 / 33;7966;2021-10-20 19:25:16:456
1.649;-8.205;-1.9339;-9.3757;-2.4804;-1.4557;0.7369;-2.8575;-1.3975;-0.1796;-0.3725;-0.8324;0.0;15.0;40.69;2.89;358.94;14.65;98.83;0.0;56.66;39.468956;-0.341159;66.5;NaN;;26.4;;0 / 33;8017;2021-10-20 19:25:16:507
4.188;-11.728;-3.64;-8.5138;-2.8299;-3.9648;1.017;-1.0308;-0.0469;-0.1818;-0.393;0.012;0.0;15.0;40.69;2.89;358.94;14.65;98.83;0.0;56.66;39.468956;-0.341159;66.5;NaN;;26.4;;0 / 33;8067;2021-10-20 19:25:16:557
1.68;-17.092;-6.534;-9.1219;-0.8954;-3.486;-1.53;2.5203;1.5451;-0.1818;-0.393;0.012;0.0;14.04;40.5;4.74;358.94;14.65;98.83;0.0;56.66;39.468956;-0.341159;66.5;NaN;;26.4;;0 / 33;8116;2021-10-20 19:25:16:606
1.68;-17.092;-6.534;-9.1219;-0.8954;-3.486;1.007;7.9353;4.211;-0.3664;-0.4335;-0.0382;0.0;13.26;40.09;7.09;357.18;5.24;110.91;0.0;56.45;39.468956;-0.341159;66.5;NaN;;26.4;;0 / 33;8167;2021-10-20 19:25:16:657
-0.196;-12.2239;-3.4061;-9.4427;0.1484;-2.6336;2.3672;0.5063;0.6472;-0.2307;-0.4973;0.5176;0.0;13.26;40.09;7.09;357.18;5.24;110.91;0.0;56.45;39.468956;-0.341159;66.5;NaN;;26.4;;0 / 33;8217;2021-10-20 19:25:16:707
1.7561;-8.188;-3.37;-8.9016;-1.8962;-3.6583;2.3672;0.5063;0.6472;-0.2307;-0.4973;0.5176;0.0;12.0;40.56;10.5;351.44;11.15;112.34;0.0;56.45;39.468956;-0.341159;66.5;NaN;;26.4;;0 / 33;8266;2021-10-20 19:25:16:756
-0.593;-2.7;-1.101;-9.5672;0.3831;-2.1165;0.1229;-2.3311;-0.29;-0.1897;-0.2446;0.7789;0.0;12.0;40.56;10.5;351.44;11.15;112.34;0.0;56.45;39.468956;-0.341159;66.5;NaN;;26.4;;0 / 33;8317;2021-10-20 19:25:16:807
0.8321;-4.935;-0.15;-9.5672;0.3831;-2.1165;0.5802;-5.6128;-2.8773;-0.1897;-0.2446;0.7789;0.0;11.04;40.74;11.76;347.31;-2.24;102.47;0.0;56.45;39.468956;-0.341159;66.5;NaN;;26.4;;0 / 33;8366;2021-10-20 19:25:16:856
-1.3159;-7.279;-2.6111;-9.3757;1.3072;-2.5618;0.5802;-5.6128;-2.8773;-0.1127;0.9632;0.4762;0.0;11.1;40.39;8.81;347.31;-2.24;102.47;0.0;56.45;39.468956;-0.341159;66.5;NaN;;26.4;;0 / 33;8416;2021-10-20 19:25:16:906
-1.3159;-7.279;-2.6111;-8.7771;-2.8539;-3.3184;2.4423;-2.0655;-0.168;0.1847;1.196;1.0225;0.0;11.1;40.39;8.81;347.31;-2.24;102.47;0.0;56.45;39.468956;-0.341159;66.5;NaN;;26.4;;0 / 33;8467;2021-10-20 19:25:16:957
2.8841;-11.216;-5.1461;-8.3653;0.2682;-5.1092;-1.931;1.8312;2.428;0.1847;1.196;1.0225;0.0;11.46;40.56;3.41;1.73;16.92;110.71;0.0;61.808;39.468956;-0.341159;66.5;NaN;;26.4;;0 / 33;8517;2021-10-20 19:25:17:007
-0.134;-12.209;-4.5281;-8.3653;0.2682;-5.1092;-1.931;1.8312;2.428;-0.4166;-2.1524;-0.5833;0.0;11.89;39.49;-1.26;10.26;-1.57;121.41;0.0;61.808;39.468956;-0.341159;66.5;NaN;;26.4;;0 / 33;8567;2021-10-20 19:25:17:057
1.373;-14.524;2.7881;-9.6247;1.1636;-1.4844;1.3449;4.7131;-0.6733;0.3241;-1.3948;-0.2817;0.0;11.89;39.49;-1.26;10.26;-1.57;121.41;0.0;61.808;39.468956;-0.341159;66.5;NaN;;26.4;;0 / 33;8616;2021-10-20 19:25:17:106
6.5201;-16.6039;-0.5809;-8.6479;-4.0175;2.2841;-6.1809;5.7907;-6.7714;0.3241;-1.3948;-0.2817;0.0;12.71;38.64;-2.21;10.26;-1.57;121.41;0.0;61.808;39.468956;-0.341159;66.5;NaN;;26.4;;0 / 33;8666;2021-10-20 19:25:17:156
1.74;-9.732;2.594;-9.3422;-1.6616;2.4852;-0.2542;0.0445;-2.121;1.0798;1.3104;-0.2065;0.0;12.71;38.64;-2.21;10.26;-1.57;121.41;0.0;61.808;39.468956;-0.341159;66.5;NaN;;26.4;;0 / 33;8717;2021-10-20 19:25:17:207
1.74;-9.732;2.594;-9.3422;-1.6616;2.4852;-0.2542;0.0445;-2.121;1.0798;1.3104;-0.2065;0.0;13.2;38.4;-3.0;359.28;9.75;75.1;0.0;61.808;39.468956;-0.341159;66.5;NaN;;26.4;;0 / 33;8766;2021-10-20 19:25:17:256
1.443;-9.7151;-1.929;-9.5241;-1.403;-1.8818;1.0889;2.2377;1.1182;0.8031;0.9698;-0.4084;0.0;14.21;37.8;-6.0;359.28;9.75;75.1;0.0;57.911;39.468956;-0.341159;66.5;NaN;;26.4;;0 / 33;8816;2021-10-20 19:25:17:306
3.801;-6.041;-2.056;-7.9775;-5.023;-2.7007;-2.1486;-3.5495;0.7771;0.1699;-0.73;-0.2417;0.0;14.21;37.8;-6.0;359.28;9.75;75.1;0.0;57.911;39.468956;-0.341159;66.5;NaN;;26.4;;0 / 33;8867;2021-10-20 19:25:17:357
3.7481;-8.078;-3.078;-8.4132;-3.9025;-3.1939;-1.7717;-1.4161;1.5955;0.1699;-0.73;-0.2417;0.0;16.14;37.09;-5.34;21.67;30.81;108.7;0.0;57.911;39.468956;-0.341159;66.5;NaN;;26.4;;0 / 33;8916;2021-10-20 19:25:17:406
3.482;-5.44;0.294;-8.2552;-5.2768;0.4357;-1.7717;-1.4161;1.5955;-0.4095;-0.7186;-1.1117;0.0;16.61;37.61;-3.3;5.26;32.55;86.98;0.0;57.911;39.468956;-0.341159;66.5;NaN;;26.4;;0 / 33;8967;2021-10-20 19:25:17:457
2.441;-7.968;-2.6299;-8.9447;-2.7342;-2.9497;-2.8707;-3.9798;-1.3745;-0.21;0.0296;-1.008;0.0;16.61;37.61;-3.3;5.26;32.55;86.98;0.0;57.911;39.468956;-0.341159;66.5;NaN;;26.4;;0 / 33;9016;2021-10-20 19:25:17:506
4.43;-12.3821;-2.3929;-9.0884;-3.2465;-1.7478;-1.4961;2.8402;1.3172;-0.21;0.0296;-1.008;0.0;16.5;38.16;-3.24;14.22;16.19;108.25;0.0;57.911;39.468956;-0.341159;66.5;NaN;;26.4;;0 / 33;9067;2021-10-20 19:25:17:557
4.43;-12.3821;-2.3929;-9.0884;-3.2465;-1.7478;-1.4961;2.8402;1.3172;-0.0953;0.1466;-0.2732;0.0;16.5;38.16;-3.24;14.22;16.19;108.25;0.0;57.564;39.468956;-0.341159;66.5;NaN;;26.4;;0 / 33;9116;2021-10-20 19:25:17:606
0.9191;-18.419;-3.628;-9.6103;-0.4741;-1.8914;2.839;7.9331;1.4831;0.0773;-0.3778;0.5723;0.0;15.0;39.24;-3.79;11.87;19.33;100.89;0.0;57.564;39.468956;-0.341159;66.5;NaN;;26.4;;0 / 33;9167;2021-10-20 19:25:17:657
2.601;-13.1599;-4.887;-9.0453;-1.7813;-3.3519;-0.8763;6.2213;2.6623;0.0773;-0.3778;0.5723;0.0;9.6;41.51;-2.29;11.87;19.33;100.89;0.0;57.564;39.468956;-0.341159;66.5;NaN;;26.4;;0 / 33;9216;2021-10-20 19:25:17:706
0.45;-7.161;-1.503;-9.5816;-0.6033;-2.0063;2.0217;-2.0965;-0.6356;0.0719;-0.98;0.4352;0.0;9.6;41.51;-2.29;11.87;19.33;100.89;0.0;57.564;39.468956;-0.341159;66.5;NaN;;26.4;;0 / 33;9267;2021-10-20 19:25:17:757
-0.469;-5.996;-0.1241;-9.7779;0.7566;-0.2011;2.0217;-2.0965;-0.6356;0.0719;-0.98;0.4352;0.0;3.54;43.01;-1.39;2.41;3.53;101.83;0.0;57.564;39.468956;-0.341159;66.5;NaN;;26.4;;0 / 33;9316;2021-10-20 19:25:17:806
0.0641;-4.634;-1.855;-9.1075;-0.1053;-3.644;2.639;-3.3038;-2.1148;0.2107;-1.6757;0.1693;0.0;-1.26;42.79;-3.06;3.98;-4.42;91.18;0.0;57.564;39.468956;-0.341159;66.5;NaN;;26.4;;0 / 33;9367;2021-10-20 19:25:17:857
0.0641;-4.634;-1.855;-9.1075;-0.1053;-3.644;1.5992;-4.7707;-0.3939;0.7811;-4.4384;0.1254;0.0;-1.26;42.79;-3.06;3.98;-4.42;91.18;0.0;57.564;39.468956;-0.341159;66.5;NaN;;26.4;;0 / 33;9417;2021-10-20 19:25:17:907
-0.9551;-7.764;-3.7931;-8.7628;1.0774;-4.2713;0.3164;-0.0873;2.9966;0.7811;-4.4384;0.1254;0.0;-4.86;42.11;-6.41;3.98;-4.42;91.18;0.0;59.152;39.468956;-0.341159;66.5;NaN;;26.4;;0 / 33;9466;2021-10-20 19:25:17:956
2.025;-12.951;-7.4749;-8.418;-1.312;-4.8554;0.3164;-0.0873;2.9966;-0.3972;-3.2156;-0.5306;0.0;-4.86;42.11;-6.41;3.98;-4.42;91.18;0.0;59.152;39.468956;-0.341159;66.5;NaN;;26.4;;0 / 33;9517;2021-10-20 19:25:18:007
0.6791;-5.407;-8.284;-5.3391;-0.6608;-8.1977;-0.7368;1.4725;6.3995;-1.1122;-1.6956;-0.7348;0.0;-6.06;41.04;-10.5;7.68;7.69;119.98;0.0;59.152;39.468956;-0.341159;66.5;NaN;;26.4;;0 / 33;9566;2021-10-20 19:25:18:056
0.828;-16.769;7.7291;-8.8969;-0.4357;4.0989;-0.9807;-0.3113;3.1939;-1.1122;-1.6956;-0.7348;0.0;-6.19;40.74;-11.1;1.34;3.86;146.92;0.0;59.152;39.468956;-0.341159;66.5;NaN;;26.4;;0 / 33;9617;2021-10-20 19:25:18:107
5.493;-14.7199;2.1041;-9.1075;-3.3998;1.2977;-0.9807;-0.3113;3.1939;0.4368;-0.7532;-0.5182;0.0;-6.19;40.74;-11.1;1.34;3.86;146.92;0.0;59.152;39.468956;-0.341159;66.5;NaN;;26.4;;0 / 33;9667;2021-10-20 19:25:18:157
5.493;-14.7199;2.1041;-9.1075;-3.3998;1.2977;-4.2377;5.5584;-5.392;0.4368;-0.7532;-0.5182;0.0;-6.6;41.4;-9.0;13.76;20.28;81.89;0.0;59.152;39.468956;-0.341159;66.5;NaN;;26.4;;0 / 33;9717;2021-10-20 19:25:18:207
1.239;-16.03;-0.6911;-9.7683;-0.747;-0.4166;2.769;2.6904;-1.7426;1.7512;0.6878;-0.2515;0.0;-7.61;41.1;-10.31;13.76;20.28;81.89;0.0;58.6;39.468956;-0.341159;66.5;NaN;;26.4;;0 / 33;9766;2021-10-20 19:25:18:256
1.4051;-10.275;-0.6649;-9.6965;-1.3264;-0.6177;2.769;2.6904;-1.7426;1.6694;-1.5661;-0.0346;0.0;-7.61;41.1;-10.31;13.76;20.28;81.89;0.0;58.6;39.468956;-0.341159;66.5;NaN;;26.4;;0 / 33;9816;2021-10-20 19:25:18:306
0.677;-6.774;-0.756;-9.7013;-0.9577;-1.0726;0.2051;-2.6501;-1.058;1.6694;-1.5661;-0.0346;0.0;-7.74;39.49;-14.21;18.67;7.77;93.65;0.0;58.6;39.468956;-0.341159;66.5;NaN;;26.4;;0 / 33;9867;2021-10-20 19:25:18:357
1.7321;-8.5661;-1.3571;-9.5002;-1.9201;-1.4988;-0.2759;-1.343;0.9989;0.5963;-1.5273;0.0329;0.0;-7.74;39.49;-14.21;18.67;7.77;93.65;0.0;58.6;39.468956;-0.341159;66.5;NaN;;26.4;;0 / 33;9917;2021-10-20 19:25:18:407
2.364;-9.198;-1.804;-9.3326;-2.3942;-1.8244;-0.2759;-1.343;0.9989;-0.1203;0.2845;-0.3029;0.0;-6.6;37.2;-17.21;22.37;11.29;98.97;0.0;58.6;39.468956;-0.341159;66.5;NaN;;26.4;;0 / 33;9967;2021-10-20 19:25:18:457
4.0901;-12.0559;-2.24;-9.1458;-3.1029;-1.6951;-1.0774;-0.4562;0.6089;-0.1203;0.2845;-0.3029;0.0;-5.16;35.94;-19.56;26.75;14.13;101.06;0.0;58.6;39.468956;-0.341159;66.5;NaN;;26.4;;0 / 33;10017;2021-10-20 19:25:18:507
4.0901;-12.0559;-2.24;-9.1458;-3.1029;-1.6951;-3.7052;2.0764;0.9841;-0.3069;0.6135;-0.4401;0.0;-5.16;35.94;-19.56;26.75;14.13;101.06;0.0;58.6;39.468956;-0.341159;66.5;NaN;;26.4;;0 / 33;10066;2021-10-20 19:25:18:556
7.5131;-13.978;-1.725;-8.5904;-4.6112;-1.0534;-4.3047;4.4755;0.5109;-0.4583;1.3343;-0.6915;0.0;-3.96;36.24;-20.34;29.11;28.05;96.99;0.0;55.64;39.468956;-0.341159;66.5;NaN;;26.4;;0 / 33;10116;2021-10-20 19:25:18:606
3.408;-8.6239;0.6311;-9.1028;-3.5961;0.6608;-4.3047;4.4755;0.5109;-0.4583;1.3343;-0.6915;0.0;-5.64;36.66;-18.66;28.23;21.51;85.85;0.0;55.64;39.468956;-0.341159;66.5;NaN;;26.4;;0 / 33;10167;2021-10-20 19:25:18:657
-1.699;-13.557;0.842;-9.7157;1.2115;0.5938;3.5797;1.069;-2.0085;0.025;1.0304;-0.3378;0.0;-5.64;36.66;-18.66;28.23;21.51;85.85;0.0;55.64;39.468956;-0.341159;66.5;NaN;;26.4;;0 / 33;10216;2021-10-20 19:25:18:706
3.894;-11.5819;0.485;-9.2895;-3.1172;0.3831;3.5797;1.069;-2.0085;0.025;1.0304;-0.3378;0.0;-10.56;37.69;-13.99;21.88;-7.09;86.5;0.0;55.64;39.468956;-0.341159;66.5;NaN;;26.4;;0 / 33;10267;2021-10-20 19:25:18:757
2.2931;-10.548;-1.917;-9.4379;-2.0494;-1.7047;-1.3723;2.1399;-1.3754;0.9248;-0.3963;0.4175;0.0;-10.56;37.69;-13.99;21.88;-7.09;86.5;0.0;55.64;39.468956;-0.341159;66.5;NaN;;26.4;;0 / 33;10316;2021-10-20 19:25:18:806
2.2931;-10.548;-1.917;-9.4379;-2.0494;-1.7047;1.0867;0.2395;-0.3077;0.6665;-1.8069;0.1022;0.0;-17.1;37.86;-7.91;6.76;12.06;100.24;0.0;55.64;39.468956;-0.341159;66.5;NaN;;26.4;;0 / 33;10366;2021-10-20 19:25:18:856
1.125;-7.985;1.3541;-9.5768;-1.3408;1.6185;1.0867;0.2395;-0.3077;0.6665;-1.8069;0.1022;0.0;-23.81;35.46;-2.21;8.96;7.86;80.41;0.0;62.816;39.468956;-0.341159;66.5;NaN;;26.4;;0 / 33;10416;2021-10-20 19:25:18:906
0.045;-6.5081;-0.3491;-9.7923;-0.0622;-0.5124;0.9983;-2.2372;-1.3134;0.9426;-3.7667;-0.0832;0.0;-23.81;35.46;-2.21;8.96;7.86;80.41;0.0;62.816;39.468956;-0.341159;66.5;NaN;;26.4;;0 / 33;10467;2021-10-20 19:25:18:957
0.282;-8.313;-1.5049;-9.6486;-0.316;-1.7382;2.0882;-2.8288;0.5517;0.9426;-3.7667;-0.0832;0.0;-28.31;32.46;1.69;353.86;0.36;93.0;0.0;62.816;39.468956;-0.341159;66.5;NaN;;26.4;;0 / 33;10517;2021-10-20 19:25:19:007
0.39;-10.421;-2.944;-9.4332;-0.3448;-2.6624;0.0921;0.7571;2.2702;0.9207;-4.9672;0.4285;0.0;-30.0;30.54;2.7;353.86;0.36;93.0;0.0;62.816;39.468956;-0.341159;66.5;NaN;;26.4;;0 / 33;10566;2021-10-20 19:25:19:056
5.268;-9.411;-5.737;-9.4332;-0.3448;-2.6624;0.0921;0.7571;2.2702;-0.5207;-2.6905;0.2007;0.0;-30.0;30.54;2.7;353.86;0.36;93.0;0.0;62.816;39.468956;-0.341159;66.5;NaN;;26.4;;0 / 33;10617;2021-10-20 19:25:19:107
5.268;-9.411;-5.737;-7.5561;-4.2282;-4.6112;-0.1062;-0.6456;3.8656;-0.5207;-2.6905;0.2007;0.0;-30.24;30.24;3.0;334.09;25.53;121.39;0.0;62.816;39.468956;-0.341159;66.5;NaN;;26.4;;0 / 33;10667;2021-10-20 19:25:19:157
6.3431;-8.0089;-6.601;-6.8714;-5.2912;-4.5825;-4.5051;-1.4173;4.598;-0.9723;-0.6178;-0.8427;0.0;-30.24;30.24;3.0;334.09;25.53;121.39;0.0;58.364;39.468956;-0.341159;66.5;NaN;;26.4;;0 / 33;10716;2021-10-20 19:25:19:206
-0.694;-18.9619;4.4111;-9.6726;1.5706;-0.3208;-4.5051;-1.4173;4.598;0.1603;-0.8849;-1.0872;0.0;-30.24;30.3;3.19;334.09;25.53;121.39;0.0;58.364;39.468956;-0.341159;66.5;NaN;;26.4;;0 / 33;10767;2021-10-20 19:25:19:257
1.469;-4.243;-1.524;-6.0956;-4.9608;5.8658;5.6499;10.5888;-1.7062;0.1603;-0.8849;-1.0872;0.0;-30.9;30.11;2.1;353.0;-9.22;91.9;0.0;58.364;39.468956;-0.341159;66.5;NaN;;26.4;;0 / 33;10816;2021-10-20 19:25:19:306
-1.1561;-10.249;2.115;-6.0956;-4.9608;5.8658;1.3718;-1.9296;-5.5205;1.1908;-2.2708;0.016;0.0;-30.9;30.11;2.1;353.0;-9.22;91.9;0.0;58.364;39.468956;-0.341159;66.5;NaN;;26.4;;0 / 33;10867;2021-10-20 19:25:19:357
4.842;-9.024;-1.859;-9.8019;-0.0144;-0.3591;1.3718;-1.9296;-5.5205;0.9738;-1.7541;0.5728;0.0;-31.61;29.76;1.8;353.98;0.08;92.1;0.0;58.364;39.468956;-0.341159;66.5;NaN;;26.4;;0 / 33;10917;2021-10-20 19:25:19:407
4.842;-9.024;-1.859;-8.4611;-4.956;-0.1628;-3.4517;-0.6074;0.574;0.9738;-1.7541;0.5728;0.0;-32.51;29.59;0.96;357.8;30.35;91.1;0.0;58.364;39.468956;-0.341159;66.5;NaN;;26.4;;0 / 33;10967;2021-10-20 19:25:19:457
1.524;-9.395;-1.438;-9.3661;-1.7909;-2.2841;0.0903;-0.2576;0.6337;0.5467;-0.8264;-0.3406;0.0;-32.51;29.59;0.96;357.8;30.35;91.1;0.0;58.364;39.468956;-0.341159;66.5;NaN;;26.4;;0 / 33;11016;2021-10-20 19:25:19:506
3.65;-9.9379;-2.166;-9.2273;-2.8443;-1.7142;0.0903;-0.2576;0.6337;0.5467;-0.8264;-0.3406;0.0;-33.6;29.46;-0.71;348.43;10.52;103.7;0.0;58.301;39.468956;-0.341159;66.5;NaN;;26.4;;0 / 33;11066;2021-10-20 19:25:19:556
2.5391;-8.65;-4.028;-8.5856;-3.8547;-2.7485;-1.1451;0.7139;0.8788;-0.4884;0.507;-0.5874;0.0;-33.6;29.46;-0.71;348.43;10.52;103.7;0.0;58.301;39.468956;-0.341159;66.5;NaN;;26.4;;0 / 33;11117;2021-10-20 19:25:19:607
2.331;-5.847;0.825;-8.5856;-3.8547;-2.7485;-1.6526;-0.9102;1.389;-0.8288;0.7891;-0.092;0.0;-34.44;29.04;-0.54;346.6;23.15;107.75;0.0;58.301;39.468956;-0.341159;66.5;NaN;;26.4;;0 / 33;11167;2021-10-20 19:25:19:657
1.6541;-6.843;0.854;-9.5289;-2.3128;0.0575;2.2702;-3.9663;-0.1966;-0.8288;0.7891;-0.092;0.0;-36.54;27.9;1.99;357.17;13.64;89.65;0.0;58.301;39.468956;-0.341159;66.5;NaN;;26.4;;0 / 33;11217;2021-10-20 19:25:19:707
1.6541;-6.843;0.854;-9.1506;-2.806;2.1356;2.2702;-3.9663;-0.1966;-0.1611;0.1459;-0.1952;0.0;-36.54;27.9;1.99;357.17;13.64;89.65;0.0;58.301;39.468956;-0.341159;66.5;NaN;;26.4;;0 / 33;11267;2021-10-20 19:25:19:757
-0.524;-6.558;-2.0081;-9.3996;-2.2218;-1.7095;1.4128;-2.9123;-1.6278;0.8579;-1.104;0.2431;0.0;-38.21;26.4;6.79;2.9;16.63;76.86;0.0;58.301;39.468956;-0.341159;66.5;NaN;;26.4;;0 / 33;11316;2021-10-20 19:25:19:806
4.9901;-8.909;-2.869;-8.5425;-4.276;-2.217;-2.5775;-0.5192;1.6323;0.8579;-1.104;0.2431;0.0;-37.26;25.56;12.06;330.99;25.85;104.55;0.0;54.66;39.468956;-0.341159;66.5;NaN;;26.4;;0 / 33;11367;2021-10-20 19:25:19:857
3.446;-17.1431;-6.821;-8.5425;-4.276;-2.217;-2.5775;-0.5192;1.6323;-0.0869;-0.8297;-0.4767;0.0;-37.26;25.56;12.06;330.99;25.85;104.55;0.0;54.66;39.468956;-0.341159;66.5;NaN;;26.4;;0 / 33;11417;2021-10-20 19:25:19:907
-0.9311;-15.707;-2.747;-9.4379;0.6704;-2.5762;2.1214;11.8032;6.4481;-0.3871;-0.971;0.2388;0.0;-35.64;23.4;16.39;330.99;25.85;104.55;0.0;54.66;39.468956;-0.341159;66.5;NaN;;26.4;;0 / 33;11466;2021-10-20 19:25:19:956
3.645;-11.786;-4.861;-8.5952;-2.5379;-3.984;0.634;3.3842;2.1957;-0.3871;-0.971;0.2388;0.0;-35.64;23.4;16.39;330.99;25.85;104.55;0.0;54.66;39.468956;-0.341159;66.5;NaN;;26.4;;0 / 33;11516;2021-10-20 19:25:20:006
-0.756;-4.44;-0.5171;-9.6343;-0.9194;-1.5945;-0.6427;0.8705;0.7318;-0.3004;-1.1634;0.2585;0.0;-34.56;19.2;20.76;305.72;15.0;114.87;0.0;54.66;39.468956;-0.341159;66.5;NaN;;26.4;;0 / 33;11567;2021-10-20 19:25:20:057
-0.756;-4.44;-0.5171;-9.0118;2.3559;-3.0598;3.2096;-6.4425;-2.0006;-0.3004;-1.1634;0.2585;0.0;-34.01;16.5;24.0;305.72;15.0;114.87;0.0;54.66;39.468956;-0.341159;66.5;NaN;;26.4;;0 / 33;11617;2021-10-20 19:25:20:107
0.746;-3.949;-1.172;-9.6295;0.9194;-1.6137;3.2096;-6.4425;-2.0006;-0.0624;-1.3471;-0.1661;0.0;-34.01;16.5;24.0;305.72;15.0;114.87;0.0;54.66;39.468956;-0.341159;66.5;NaN;;26.4;;0 / 33;11666;2021-10-20 19:25:20:156
-0.4451;-3.9109;-0.4999;-9.6295;0.9194;-1.6137;1.8983;-5.2109;-1.8472;0.4627;-1.4942;0.7041;0.0;-33.24;16.26;25.14;293.78;-5.38;99.51;0.0;61.25;39.468956;-0.341159;66.5;NaN;;26.4;;0 / 33;11717;2021-10-20 19:25:20:207
2.226;-6.7399;-2.829;-9.323;-1.8052;-2.4517;-0.2699;-3.3457;-0.8047;0.4627;-1.4942;0.7041;0.0;-32.81;17.46;23.34;305.07;10.61;104.73;0.0;61.25;39.468956;-0.341159;66.5;NaN;;26.4;;0 / 33;11766;2021-10-20 19:25:20:256
1.457;-9.069;-5.112;-9.2225;-1.0056;-3.1843;0.2337;-2.4603;-0.0226;0.0661;-0.9775;-0.5173;0.0;-32.81;17.46;23.34;305.07;10.61;104.73;0.0;61.25;39.468956;-0.341159;66.5;NaN;;26.4;;0 / 33;11817;2021-10-20 19:25:20:307
2.7311;-20.1611;-5.828;-9.1889;-1.1349;-3.237;0.2337;-2.4603;-0.0226;-0.6094;-0.2254;-0.3758;0.0;-32.16;19.8;18.96;308.21;5.88;109.05;0.0;61.25;39.468956;-0.341159;66.5;NaN;;26.4;;0 / 33;11867;2021-10-20 19:25:20:357
2.7311;-20.1611;-5.828;-8.3462;-1.6376;4.8842;-1.5201;10.8516;2.9681;-0.6094;-0.2254;-0.3758;0.0;-32.16;19.8;18.96;308.21;5.88;109.05;0.0;61.25;39.468956;-0.341159;66.5;NaN;;26.4;;0 / 33;11916;2021-10-20 19:25:20:406
6.467;-18.7819;-1.029;-8.2983;-4.5681;-2.5426;-5.1782;9.4278;-1.677;0.6094;-0.2102;-0.2607;0.0;-29.7;21.66;16.44;2.81;9.61;59.66;0.0;61.25;39.468956;-0.341159;66.5;NaN;;26.4;;0 / 33;11967;2021-10-20 19:25:20:457
-0.356;-10.249;-6.23;-8.2983;-4.5681;-2.5426;-5.1782;9.4278;-1.677;0.6094;-0.2102;-0.2607;0.0;-28.44;20.94;16.14;320.85;27.76;107.04;0.0;61.25;39.468956;-0.341159;66.5;NaN;;26.4;;0 / 33;12016;2021-10-20 19:25:20:506
3.4271;-7.736;-0.849;-9.0788;-1.8771;3.2034;2.5593;1.1011;-2.0666;0.7633;-0.2872;-0.4161;0.0;-28.44;20.94;16.14;320.85;27.76;107.04;0.0;58.704;39.468956;-0.341159;66.5;NaN;;26.4;;0 / 33;12067;2021-10-20 19:25:20:557
1.5191;-6.1061;-2.441;-8.5617;-4.2808;-2.1308;-1.8989;-3.1944;-1.9727;0.2009;-0.1775;-0.7256;0.0;-28.61;20.16;15.54;348.13;11.03;70.56;0.0;58.704;39.468956;-0.341159;66.5;NaN;;26.4;;0 / 33;12116;2021-10-20 19:25:20:606
1.46;-3.609;-0.179;-9.2751;-3.1029;-0.6991;0.6042;-4.7343;-1.2978;0.2009;-0.1775;-0.7256;0.0;-29.16;21.0;15.36;329.17;18.45;94.31;0.0;58.704;39.468956;-0.341159;66.5;NaN;;26.4;;0 / 33;12167;2021-10-20 19:25:20:657
1.46;-3.609;-0.179;-9.2129;-0.9912;-3.213;0.6042;-4.7343;-1.2978;0.5893;-0.3854;-0.6489;0.0;-29.16;21.0;15.36;329.17;18.45;94.31;0.0;58.704;39.468956;-0.341159;66.5;NaN;;26.4;;0 / 33;12217;2021-10-20 19:25:20:707
0.3851;-6.8569;-1.373;-8.7005;-3.0598;-3.3327;1.9959;-2.4953;-0.4171;-0.476;0.5259;0.6211;0.0;-29.34;20.7;16.44;313.17;5.8;109.23;0.0;58.704;39.468956;-0.341159;66.5;NaN;;26.4;;0 / 33;12266;2021-10-20 19:25:20:756
3.363;-8.724;-5.842;-8.7005;-3.0598;-3.3327;-1.2146;-0.6466;3.847;-0.476;0.5259;0.6211;0.0;-29.34;20.7;16.44;313.17;5.8;109.23;0.0;58.704;39.468956;-0.341159;66.5;NaN;;26.4;;0 / 33;12317;2021-10-20 19:25:20:807
6.0461;-18.2291;-7.609;-8.2983;-4.4197;-2.7868;-3.7636;8.9733;5.2678;-0.741;0.4239;-0.2251;0.0;-27.54;19.44;18.3;312.06;18.18;110.96;0.0;52.786;39.468956;-0.341159;66.5;NaN;;26.4;;0 / 33;12366;2021-10-20 19:25:20:856
2.003;-14.9261;-2.795;-9.3709;0.1341;-2.8874;-3.7636;8.9733;5.2678;-0.741;0.4239;-0.2251;0.0;-24.9;16.74;22.44;312.06;18.18;110.96;0.0;52.786;39.468956;-0.341159;66.5;NaN;;26.4;;0 / 33;12417;2021-10-20 19:25:20:907
1.409;-9.3109;-3.7931;-8.9208;0.3879;-4.0558;2.7771;1.7896;2.288;-0.6058;0.1585;-0.0734;0.0;-24.9;16.74;22.44;312.06;18.18;110.96;0.0;52.786;39.468956;-0.341159;66.5;NaN;;26.4;;0 / 33;12467;2021-10-20 19:25:20:957
1.409;-9.3109;-3.7931;-8.9208;0.3879;-4.0558;2.7771;1.7896;2.288;-0.6058;0.1585;-0.0734;0.0;-23.7;12.66;25.69;290.48;-2.27;114.45;0.0;52.786;39.468956;-0.341159;66.5;NaN;;26.4;;0 / 33;12517;2021-10-20 19:25:21:007
-0.098;-3.161;-1.7591;-8.5712;0.2586;-4.7645;2.103;-5.9771;-1.1849;-0.6058;0.1585;-0.0734;0.0;-23.76;12.19;26.59;288.49;-1.51;119.07;0.0;52.786;39.468956;-0.341159;66.5;NaN;;26.4;;0 / 33;12567;2021-10-20 19:25:21:057
-0.624;-2.759;0.404;-9.481;2.1117;1.3599;3.3021;-4.8945;-2.5716;-0.6058;0.1585;-0.0734;0.0;-23.76;12.19;26.59;288.49;-1.51;119.07;0.0;52.786;39.468956;-0.341159;66.5;NaN;;26.4;;0 / 33;12617;2021-10-20 19:25:21:107
-0.2171;-7.5131;-0.225;-9.8019;0.2682;-0.2825;-0.0836;0.3703;-0.72;0.5655;-1.0352;0.804;0.0;-23.46;14.76;26.29;288.49;-1.51;119.07;0.0;60.815;39.468956;-0.341159;66.5;NaN;;26.4;;0 / 33;12667;2021-10-20 19:25:21:157
3.504;-10.668;-5.026;-8.5042;-2.7916;-4.0079;-0.0836;0.3703;-0.72;0.5655;-1.0352;0.804;0.0;-23.46;14.76;26.29;288.49;-1.51;119.07;0.0;60.815;39.468956;-0.341159;66.5;NaN;;26.4;;0 / 33;12716;2021-10-20 19:25:21:206
2.6591;-12.456;-3.171;-9.3087;-1.9872;-2.3607;-0.4884;-1.0934;1.2551;0.5655;-1.0352;0.804;0.0;-22.56;17.34;23.89;301.49;16.54;115.23;0.0;60.815;39.468956;-0.341159;66.5;NaN;;26.4;;0 / 33;12766;2021-10-20 19:25:21:256
1.608;-14.278;4.952;-9.3087;-1.9872;-2.3607;0.5234;9.6253;1.3512;0.5655;-1.0352;0.804;0.0;-21.96;20.04;20.94;301.49;16.54;115.23;0.0;60.815;39.468956;-0.341159;66.5;NaN;;26.4;;0 / 33;12817;2021-10-20 19:25:21:307
1.608;-14.278;4.952;-9.2129;-1.0391;3.1939;0.5234;9.6253;1.3512;0.5655;-1.0352;0.804;0.0;-21.96;20.04;20.94;301.49;16.54;115.23;0.0;60.815;39.468956;-0.341159;66.5;NaN;;26.4;;0 / 33;12867;2021-10-20 19:25:21:357
7.427;-19.0481;-0.9551;-9.1267;-3.5578;-0.4549;-6.2139;6.0494;-5.3702;1.2855;-0.6148;-0.557;0.0;-21.6;21.6;19.39;336.52;6.08;70.88;0.0;60.815;39.468956;-0.341159;66.5;NaN;;26.4;;0 / 33;12916;2021-10-20 19:25:21:406
0.497;-10.9721;1.055;-9.754;-0.4357;0.9337;1.0463;1.4232;-2.7145;1.2855;-0.6148;-0.557;0.0;-21.84;22.56;18.3;336.52;6.08;70.88;0.0;60.815;39.468956;-0.341159;66.5;NaN;;26.4;;0 / 33;12966;2021-10-20 19:25:21:456
3.257;-8.514;0.945;-9.1123;-3.486;1.0056;1.0463;1.4232;-2.7145;1.3199;-0.4858;-0.3428;0.0;-21.84;22.56;18.3;336.52;6.08;70.88;0.0;60.697;39.468956;-0.341159;66.5;NaN;;26.4;;0 / 33;13016;2021-10-20 19:25:21:506
4.787;-8.885;-3.236;-9.1123;-3.486;1.0056;-1.5377;-1.0726;-2.0981;0.1479;0.165;-0.0936;0.0;-22.86;22.8;16.69;334.61;20.82;83.7;0.0;60.697;39.468956;-0.341159;66.5;NaN;;26.4;;0 / 33;13067;2021-10-20 19:25:21:557
6.4601;-6.8689;-1.548;-7.8961;-4.8411;-3.2226;-3.1772;-1.177;2.3849;0.1479;0.165;-0.0936;0.0;-22.86;22.8;16.69;334.61;20.82;83.7;0.0;60.697;39.468956;-0.341159;66.5;NaN;;26.4;;0 / 33;13117;2021-10-20 19:25:21:607
6.4601;-6.8689;-1.548;-6.3015;-7.0773;-2.5283;-3.1772;-1.177;2.3849;-0.194;-0.5002;-1.3469;0.0;-23.51;21.66;15.9;334.61;20.82;83.7;0.0;60.697;39.468956;-0.341159;66.5;NaN;;26.4;;0 / 33;13166;2021-10-20 19:25:21:656
0.8831;-3.647;4.167;-5.023;-7.4508;3.9265;4.6821;-4.8464;4.7216;-0.1382;-0.4951;-1.3175;0.0;-23.51;20.29;17.7;314.37;46.19;111.86;0.0;60.697;39.468956;-0.341159;66.5;NaN;;26.4;;0 / 33;13217;2021-10-20 19:25:21:707
2.0771;-7.836;-0.421;-5.023;-7.4508;3.9265;0.9051;-2.879;1.5909;-0.1382;-0.4951;-1.3175;0.0;-23.51;20.29;17.7;314.37;46.19;111.86;0.0;60.697;39.468956;-0.341159;66.5;NaN;;26.4;;0 / 33;13267;2021-10-20 19:25:21:757
3.372;-12.5351;-4.911;-9.0022;-0.905;-3.7876;2.7437;-0.4149;1.8611;-0.3638;0.6805;0.3856;0.0;-22.14;19.5;21.19;307.02;5.29;112.82;0.0;54.439;39.468956;-0.341159;66.5;NaN;;26.4;;0 / 33;13317;2021-10-20 19:25:21:807
2.7401;-19.096;-7.0219;-9.1219;-1.3072;-3.3519;-3.0338;9.9674;5.0623;-0.3638;0.6805;0.3856;0.0;-19.56;19.39;25.09;307.02;5.29;112.82;0.0;54.439;39.468956;-0.341159;66.5;NaN;;26.4;;0 / 33;13366;2021-10-20 19:25:21:856
0.677;-12.042;-2.982;-9.5098;-0.5267;-2.3463;3.818;7.2418;1.845;-0.8068;0.4078;0.6578;0.0;-19.56;19.39;25.09;307.02;5.29;112.82;0.0;54.439;39.468956;-0.341159;66.5;NaN;;26.4;;0 / 33;13417;2021-10-20 19:25:21:907
0.677;-12.042;-2.982;-9.5098;-0.5267;-2.3463;3.818;7.2418;1.845;-0.3657;-0.3707;0.6625;0.0;-17.7;16.09;28.86;297.0;3.08;103.86;0.0;54.439;39.468956;-0.341159;66.5;NaN;;26.4;;0 / 33;13467;2021-10-20 19:25:21:957
2.57;-7.044;-3.564;-8.327;-3.0263;-4.2042;-0.1001;-2.1126;1.0421;-0.3657;-0.3707;0.6625;0.0;-17.7;16.09;28.86;297.0;3.08;103.86;0.0;54.439;39.468956;-0.341159;66.5;NaN;;26.4;;0 / 33;13517;2021-10-20 19:25:22:007
-0.756;-3.3101;-0.8801;-9.2656;2.0973;-2.4421;-0.1001;-2.1126;1.0421;-0.0938;-0.799;0.4638;0.0;-16.8;12.96;30.9;289.82;17.97;116.79;0.0;54.439;39.468956;-0.341159;66.5;NaN;;26.4;;0 / 33;13567;2021-10-20 19:25:22:057
0.9161;-3.69;-1.354;-8.9687;-2.2266;-3.2896;2.8364;-6.3933;-2.2192;-0.0978;-0.9839;-0.2619;0.0;-15.6;13.56;31.26;289.82;17.97;116.79;0.0;61.439;39.468956;-0.341159;66.5;NaN;;26.4;;0 / 33;13617;2021-10-20 19:25:22:107
-0.416;-7.487;-1.077;-9.6917;0.5315;-1.3934;2.0188;-4.5911;-1.2954;-0.0978;-0.9839;-0.2619;0.0;-15.6;13.56;31.26;289.82;17.97;116.79;0.0;61.439;39.468956;-0.341159;66.5;NaN;;26.4;;0 / 33;13667;2021-10-20 19:25:22:157
3.2501;-10.7329;-2.822;-9.1028;-2.7485;-2.3894;1.1448;-0.4886;-0.8005;0.286;-0.6299;0.6986;0.0;-15.6;17.04;29.59;297.08;-3.11;98.18;0.0;61.439;39.468956;-0.341159;66.5;NaN;;26.4;;0 / 33;13716;2021-10-20 19:25:22:206
3.2501;-10.7329;-2.822;-9.1028;-2.7485;-2.3894;-0.9442;2.5055;2.9733;0.286;-0.6299;0.6986;0.0;-16.26;21.79;25.44;309.97;16.28;104.71;0.0;61.439;39.468956;-0.341159;66.5;NaN;;26.4;;0 / 33;13766;2021-10-20 19:25:22:256
2.19;-15.7879;-3.8029;-9.4475;-1.3024;-2.2745;-0.9442;2.5055;2.9733;-0.0995;-0.4771;-0.0744;0.0;-16.26;21.79;25.44;309.97;16.28;104.71;0.0;61.439;39.468956;-0.341159;66.5;NaN;;26.4;;0 / 33;13817;2021-10-20 19:25:22:307
1.275;-12.573;5.318;-8.9926;-0.905;3.802;1.5599;5.5492;-0.3181;0.4458;-0.1709;-0.0253;0.0;-17.21;24.84;22.2;333.3;5.3;67.08;0.0;61.439;39.468956;-0.341159;66.5;NaN;;26.4;;0 / 33;13867;2021-10-20 19:25:22:357
8.885;-18.507;-1.677;-8.4707;-1.6855;-4.6448;-7.353;9.0817;-0.6052;0.4458;-0.1709;-0.0253;0.0;-17.21;24.84;22.2;333.3;5.3;67.08;0.0;59.679;39.468956;-0.341159;66.5;NaN;;26.4;;0 / 33;13917;2021-10-20 19:25:22:407
1.098;-8.641;0.734;-9.5433;-1.6137;-1.561;0.6992;-0.862;-2.3869;0.9503;-0.3604;-0.4965;0.0;-18.66;26.16;21.24;333.3;5.3;67.08;0.0;59.679;39.468956;-0.341159;66.5;NaN;;26.4;;0 / 33;13966;2021-10-20 19:25:22:456
2.151;-9.318;0.3131;-9.5433;-1.6137;-1.561;0.6992;-0.862;-2.3869;0.8317;-0.3986;-0.7388;0.0;-19.2;26.59;20.34;322.0;9.47;99.29;0.0;59.679;39.468956;-0.341159;66.5;NaN;;26.4;;0 / 33;14017;2021-10-20 19:25:22:507
4.085;-9.354;-2.8;-9.5433;-2.2601;-0.1101;0.0068;-0.1783;-1.4916;0.8317;-0.3986;-0.7388;0.0;-19.2;26.59;20.34;322.0;9.47;99.29;0.0;59.679;39.468956;-0.341159;66.5;NaN;;26.4;;0 / 33;14066;2021-10-20 19:25:22:556
4.085;-9.354;-2.8;-8.4563;-4.2952;-2.49;-2.1446;-0.7378;1.5789;0.363;0.2327;-0.1752;0.0;-19.5;26.7;19.69;326.55;13.32;90.66;0.0;59.679;39.468956;-0.341159;66.5;NaN;;26.4;;0 / 33;14117;2021-10-20 19:25:22:607
6.149;-9.093;-3.42;-7.6662;-4.8698;-3.6966;-2.1446;-0.7378;1.5789;-0.4095;-0.3235;-0.8643;0.0;-19.56;26.89;19.26;317.63;29.78;115.74;0.0;59.679;39.468956;-0.341159;66.5;NaN;;26.4;;0 / 33;14167;2021-10-20 19:25:22:657
3.231;-6.3791;-0.0139;-8.4755;-4.1994;-2.5905;-0.62;-0.8393;1.6775;-0.4095;-0.3235;-0.8643;0.0;-19.56;26.89;19.26;317.63;29.78;115.74;0.0;59.679;39.468956;-0.341159;66.5;NaN;;26.4;;0 / 33;14216;2021-10-20 19:25:22:706
2.898;-6.0701;2.3021;-8.4372;-4.6926;1.7286;2.4735;-4.2467;-0.3909;-0.4055;-0.4396;-0.8165;0.0;-19.56;26.16;20.7;318.26;25.35;107.0;0.0;55.527;39.468956;-0.341159;66.5;NaN;;26.4;;0 / 33;14266;2021-10-20 19:25:22:756
1.761;-6.551;0.093;-8.4372;-4.6926;1.7286;1.0997;-2.731;-1.8893;-0.4055;-0.4396;-0.8165;0.0;-19.56;26.16;20.7;318.26;25.35;107.0;0.0;55.527;39.468956;-0.341159;66.5;NaN;;26.4;;0 / 33;14316;2021-10-20 19:25:22:806
2.8121;-9.339;-2.697;-8.8729;-2.8443;-3.055;1.0997;-2.731;-1.8893;0.7393;-0.0639;-0.1028;0.0;-18.3;25.09;24.19;328.67;28.58;78.42;0.0;55.527;39.468956;-0.341159;66.5;NaN;;26.4;;0 / 33;14367;2021-10-20 19:25:22:857
2.8121;-9.339;-2.697;-8.3701;-4.2042;-2.9161;0.7146;0.2634;1.4415;0.0861;-0.0675;0.1041;0.0;-16.31;24.66;26.4;310.96;16.86;109.0;0.0;55.527;39.468956;-0.341159;66.5;NaN;;26.4;;0 / 33;14417;2021-10-20 19:25:22:907
6.8501;-16.47;-4.26;-9.4427;-0.4932;-2.6097;-3.3624;7.405;2.8445;0.0861;-0.0675;0.1041;0.0;-16.31;24.66;26.4;310.96;16.86;109.0;0.0;55.527;39.468956;-0.341159;66.5;NaN;;26.4;;0 / 33;14466;2021-10-20 19:25:22:956
0.794;-15.757;-4.011;-9.4427;-0.4932;-2.6097;2.4336;6.6466;2.2735;-0.6682;0.0809;0.4989;0.0;-14.04;23.16;28.69;306.29;2.88;105.45;0.0;55.527;39.468956;-0.341159;66.5;NaN;;26.4;;0 / 33;14516;2021-10-20 19:25:23:006
4.935;-9.126;-3.24;-8.5712;-3.5961;-3.1268;-1.968;-0.0064;1.2283;-0.3305;-0.3978;0.2926;0.0;-12.54;20.16;31.44;306.29;2.88;105.45;0.0;58.834;39.468956;-0.341159;66.5;NaN;;26.4;;0 / 33;14567;2021-10-20 19:25:23:057
-0.009;-6.137;-1.4689;-9.0118;-2.466;-2.9832;-1.968;-0.0064;1.2283;-0.3305;-0.3978;0.2926;0.0;-12.54;20.16;31.44;306.29;2.88;105.45;0.0;58.834;39.468956;-0.341159;66.5;NaN;;26.4;;0 / 33;14617;2021-10-20 19:25:23:107
-0.1571;-5.1821;0.05;-9.7444;1.063;-0.2729;3.5402;-3.284;-1.4735;-0.1738;-0.5472;0.1951;0.0;-11.34;18.36;33.24;296.63;14.56;108.32;0.0;58.834;39.468956;-0.341159;66.5;NaN;;26.4;;0 / 33;14666;2021-10-20 19:25:23:156
-0.1571;-5.1821;0.05;-9.7588;-0.9242;-0.3256;3.5402;-3.284;-1.4735;-0.1738;-0.5472;0.1951;0.0;-11.34;18.36;33.24;296.63;14.56;108.32;0.0;58.834;39.468956;-0.341159;66.5;NaN;;26.4;;0 / 33;14717;2021-10-20 19:25:23:207
0.6551;-5.3441;-0.591;-9.6391;-0.5219;-1.7142;1.8076;-3.939;-2.058;0.4675;-0.2262;0.8579;0.0;-9.36;18.49;33.79;296.63;14.56;108.32;0.0;58.834;39.468956;-0.341159;66.5;NaN;;26.4;;0 / 33;14767;2021-10-20 19:25:23:257
0.3491;-7.848;-1.809;-9.6391;-0.5219;-1.7142;1.37;-2.6461;-0.7191;0.5019;-0.2856;0.7718;0.0;-8.76;20.04;32.94;300.59;3.05;100.08;0.0;58.834;39.468956;-0.341159;66.5;NaN;;26.4;;0 / 33;14817;2021-10-20 19:25:23:307
4.083;-8.6689;-4.981;-8.0589;-3.1172;-4.6352;-1.7168;-1.3375;2.7876;0.5019;-0.2856;0.7718;0.0;-8.76;20.04;32.94;300.59;3.05;100.08;0.0;56.301;39.468956;-0.341159;66.5;NaN;;26.4;;0 / 33;14867;2021-10-20 19:25:23:357
3.2501;-16.228;-8.444;-8.6814;-1.4078;-4.3431;-1.7168;-1.3375;2.7876;-0.8049;-0.6919;-0.4133;0.0;-9.06;22.8;31.26;301.71;18.54;119.91;0.0;56.301;39.468956;-0.341159;66.5;NaN;;26.4;;0 / 33;14917;2021-10-20 19:25:23:407
1.56;-11.044;-2.348;-8.8921;-2.9592;-2.8826;-1.6398;6.8965;5.8536;-0.9639;-0.6516;-0.4869;0.0;-8.34;24.9;29.76;301.71;18.54;119.91;0.0;56.301;39.468956;-0.341159;66.5;NaN;;26.4;;0 / 33;14966;2021-10-20 19:25:23:456
5.3921;-9.533;5.397;-6.7038;-0.4357;7.1443;0.8218;5.0274;-18.0355;-0.9639;-0.6516;-0.4869;0.0;-8.34;24.9;29.76;301.71;18.54;119.91;0.0;56.301;39.468956;-0.341159;66.5;NaN;;26.4;;0 / 33;15017;2021-10-20 19:25:23:507
5.3921;-9.533;5.397;-8.2839;-2.0925;-4.8171;-4.4969;2.2663;-0.0945;-0.9639;-0.6516;-0.4869;0.0;-7.56;25.44;29.94;330.71;2.55;43.18;0.0;56.301;39.468956;-0.341159;66.5;NaN;;26.4;;0 / 33;15067;2021-10-20 19:25:23:557
0.713;-11.0749;-5.7611;-9.3326;-1.7478;2.4612;-4.4969;2.2663;-0.0945;1.7821;-0.2062;-0.0366;0.0;-7.56;25.44;29.94;330.71;2.55;43.18;0.0;56.301;39.468956;-0.341159;66.5;NaN;;26.4;;0 / 33;15116;2021-10-20 19:25:23:606
2.759;-10.599;-1.165;-9.3326;-1.7478;2.4612;-0.2976;2.0227;-4.3355;1.7821;-0.2062;-0.0366;0.0;-7.31;26.59;28.86;317.93;10.26;75.23;0.0;56.301;39.468956;-0.341159;66.5;NaN;;26.4;;0 / 33;15167;2021-10-20 19:25:23:657
3.329;-8.258;0.057;-8.7819;-3.304;-2.8587;-1.3099;-1.2777;-1.1792;-0.2071;-0.6458;-0.2831;0.0;-6.84;28.5;26.46;314.94;19.68;108.03;0.0;60.434;39.468956;-0.341159;66.5;NaN;;26.4;;0 / 33;15217;2021-10-20 19:25:23:707
2.6681;-7.616;-0.275;-9.4763;-2.4995;0.3687;-1.3099;-1.2777;-1.1792;-0.2071;-0.6458;-0.2831;0.0;-6.84;28.5;26.46;314.94;19.68;108.03;0.0;60.434;39.468956;-0.341159;66.5;NaN;;26.4;;0 / 33;15267;2021-10-20 19:25:23:757
0.885;-9.1;-0.371;-9.663;-1.652;-0.2346;-0.5368;-1.9227;-0.5852;0.5071;-0.6456;-0.4113;0.0;-6.11;29.59;26.1;320.1;14.77;87.77;0.0;60.434;39.468956;-0.341159;66.5;NaN;;26.4;;0 / 33;15316;2021-10-20 19:25:23:806
0.885;-9.1;-0.371;-9.7061;-0.7949;-1.1444;1.7852;0.3518;0.0809;0.4348;-0.1676;0.0518;0.0;-5.34;30.79;25.69;319.62;4.65;96.72;0.0;60.434;39.468956;-0.341159;66.5;NaN;;26.4;;0 / 33;15367;2021-10-20 19:25:23:857
2.0201;-10.869;-1.1749;-9.3948;-2.6576;-0.9242;-0.5639;2.0547;0.7808;0.4348;-0.1676;0.0518;0.0;-5.34;30.79;25.69;319.62;4.65;96.72;0.0;60.434;39.468956;-0.341159;66.5;NaN;;26.4;;0 / 33;15416;2021-10-20 19:25:23:906
6.426;-13.222;-0.809;-9.3948;-2.6576;-0.9242;-0.5639;2.0547;0.7808;-0.052;-0.127;0.2329;0.0;-4.26;31.39;25.2;320.13;15.72;95.62;0.0;60.434;39.468956;-0.341159;66.5;NaN;;26.4;;0 / 33;15466;2021-10-20 19:25:23:956
5.124;-10.493;-0.593;-8.5904;-4.4245;-1.6712;-4.323;3.6565;0.1029;-0.052;-0.127;0.2329;0.0;-4.26;31.39;25.2;320.13;15.72;95.62;0.0;55.832;39.468956;-0.341159;66.5;NaN;;26.4;;0 / 33;15517;2021-10-20 19:25:24:007
5.124;-10.493;-0.593;-9.4667;-2.5187;-0.498;-2.6928;1.0176;-0.1834;0.177;-1.3948;-0.74;0.0;-3.3;30.9;26.76;314.56;26.82;101.01;0.0;55.832;39.46881;-0.341259;63.6;NaN;;28.28;;0 / 33;15567;2021-10-20 19:25:24:057
0.4781;-8.844;0.959;-8.7915;-4.2665;0.8045;-1.2926;0.9054;-1.4992;0.377;-0.9278;-0.5019;0.0;-2.04;29.1;30.06;314.56;26.82;101.01;0.0;55.832;39.46881;-0.341259;63.6;NaN;;28.28;;0 / 33;15617;2021-10-20 19:25:24:107
4.7321;-11.728;0.399;-8.7915;-4.2665;0.8045;-1.2926;0.9054;-1.4992;0.377;-0.9278;-0.5019;0.0;-2.04;29.1;30.06;314.56;26.82;101.01;0.0;55.832;39.46881;-0.341259;63.6;NaN;;28.28;;0 / 33;15666;2021-10-20 19:25:24:156
1.5461;-9.33;-1.721;-9.4523;-1.8962;-1.8004;-0.508;1.891;0.4845;0.4855;-0.1064;-0.0175;0.0;-0.36;26.4;33.06;306.95;25.79;84.77;0.0;55.832;39.46881;-0.341259;63.6;NaN;;28.28;;0 / 33;15716;2021-10-20 19:25:24:206
4.406;-8.243;0.263;-9.0453;-3.7685;-0.4166;0.686;-0.8355;0.7026;0.0529;-0.2713;-0.138;0.0;1.86;24.84;34.99;301.89;22.6;92.64;0.0;55.832;39.46881;-0.341259;63.6;NaN;;28.28;;0 / 33;15766;2021-10-20 19:25:24:256
1.778;-7.951;-1.271;-9.2464;-3.1508;-0.8811;0.1642;-1.1849;0.3174;0.0529;-0.2713;-0.138;0.0;1.86;24.84;34.99;301.89;22.6;92.64;0.0;58.536;39.46881;-0.341259;63.6;NaN;;28.28;;0 / 33;15817;2021-10-20 19:25:24:307
1.778;-7.951;-1.271;-9.2464;-3.1508;-0.8811;0.1642;-1.1849;0.3174;-0.1474;-0.3704;-0.0378;0.0;4.8;24.66;36.0;301.89;22.6;92.64;0.0;58.536;39.46881;-0.341259;63.6;NaN;;28.28;;0 / 33;15866;2021-10-20 19:25:24:356
2.0681;-6.915;-0.6191;-9.3661;-2.7916;-0.8332;1.2611;-2.0976;0.4261;0.0257;-0.5416;-0.142;0.0;4.8;24.66;36.0;301.89;22.6;92.64;0.0;58.536;39.46881;-0.341259;63.6;NaN;;28.28;;0 / 33;15917;2021-10-20 19:25:24:407
2.441;-7.5851;-1.44;-9.1889;-2.9592;-1.7334;0.7418;-2.065;0.6449;0.0257;-0.5416;-0.142;0.0;7.09;25.56;35.1;302.79;16.54;95.08;0.0;58.536;39.46881;-0.341259;63.6;NaN;;28.28;;0 / 33;15967;2021-10-20 19:25:24:457
0.2441;-6.649;0.4571;-9.754;-0.7039;-0.723;2.6387;-2.6875;-1.3458;-0.122;-0.5789;0.1364;0.0;8.89;27.3;33.3;304.61;17.56;100.68;0.0;58.536;39.46881;-0.341259;63.6;NaN;;28.28;;0 / 33;16016;2021-10-20 19:25:24:506
1.74;-10.06;-3.075;-9.754;-0.7039;-0.723;2.6387;-2.6875;-1.3458;-0.122;-0.5789;0.1364;0.0;8.89;27.3;33.3;304.61;17.56;100.68;0.0;58.536;39.46881;-0.341259;63.6;NaN;;28.28;;0 / 33;16067;2021-10-20 19:25:24:557
2.0681;-10.4119;-3.999;-8.8825;-1.3743;-3.9265;0.9165;0.6631;2.0552;-0.1305;-0.4566;0.4439;0.0;10.5;29.94;31.14;317.99;8.05;113.85;0.0;58.536;39.46881;-0.341259;63.6;NaN;;28.28;;0 / 33;16116;2021-10-20 19:25:24:606
2.0681;-10.4119;-3.999;-8.9495;-1.9776;-3.486;-0.326;2.2921;3.0489;-0.5864;-1.092;0.2382;0.0;12.19;32.29;28.5;319.95;11.63;111.28;0.0;54.881;39.46881;-0.341259;63.6;NaN;;28.28;;0 / 33;16167;2021-10-20 19:25:24:657
2.424;-8.8421;-7.4839;-8.6;-1.4653;-4.4819;-0.125;4.4498;4.9529;-0.5864;-1.092;0.2382;0.0;12.19;32.29;28.5;319.95;11.63;111.28;0.0;54.881;39.46881;-0.341259;63.6;NaN;;28.28;;0 / 33;16217;2021-10-20 19:25:24:707
1.1921;-7.609;9.588;-8.2935;-1.7573;4.9321;-0.125;4.4498;4.9529;-0.4102;-1.668;-0.3158;0.0;13.44;33.0;27.3;319.95;11.63;111.28;0.0;54.881;39.46881;-0.341259;63.6;NaN;;28.28;;0 / 33;16266;2021-10-20 19:25:24:756
10.5551;-17.978;-1.0099;-8.9016;-1.2498;-3.9217;-7.2132;8.6849;-4.5969;1.1677;-0.32;-0.5175;0.0;13.44;33.0;27.3;319.95;11.63;111.28;0.0;54.881;39.46881;-0.341259;63.6;NaN;;28.28;;0 / 33;16317;2021-10-20 19:25:24:807
-1.0549;-12.2981;-0.234;-8.9016;-1.2498;-3.9217;-7.2132;8.6849;-4.5969;1.1677;-0.32;-0.5175;0.0;13.09;33.19;27.54;325.61;7.32;113.78;0.0;54.881;39.46881;-0.341259;63.6;NaN;;28.28;;0 / 33;16366;2021-10-20 19:25:24:856
2.2781;-7.934;-0.09;-9.7923;-0.0814;0.5076;3.4131;2.844;-0.9672;1.0854;0.2061;0.0846;0.0;12.96;34.5;26.46;322.65;0.48;87.03;0.0;54.881;39.46881;-0.341259;63.6;NaN;;28.28;;0 / 33;16417;2021-10-20 19:25:24:907
2.2781;-7.934;-0.09;-9.2895;-3.0023;-0.9146;-0.0451;-2.2947;-0.1326;1.0854;0.2061;0.0846;0.0;12.96;34.5;26.46;322.65;0.48;87.03;0.0;56.531;39.46881;-0.341259;63.6;NaN;;28.28;;0 / 33;16467;2021-10-20 19:25:24:957
3.626;-5.739;-1.383;-8.2456;-4.9847;-1.834;-1.6353;-3.2998;0.5955;-0.0549;-0.1888;0.5319;0.0;14.94;35.76;23.76;322.28;17.83;95.62;0.0;56.531;39.46881;-0.341259;63.6;NaN;;28.28;;0 / 33;16517;2021-10-20 19:25:25:007
2.771;-8.559;0.5741;-9.6582;-1.6855;-0.1437;-1.6353;-3.2998;0.5955;0.3919;-0.9721;-0.8166;0.0;17.29;36.66;20.89;328.21;9.9;90.85;0.0;56.531;39.46881;-0.341259;63.6;NaN;;28.28;;0 / 33;16567;2021-10-20 19:25:25:057
2.556;-10.043;-1.017;-8.9878;-3.869;-0.6656;1.3192;0.3256;0.5046;0.3919;-0.9721;-0.8166;0.0;17.29;36.66;20.89;328.21;9.9;90.85;0.0;56.531;39.46881;-0.341259;63.6;NaN;;28.28;;0 / 33;16616;2021-10-20 19:25:25:106
3.489;-13.277;-2.843;-8.9878;-3.869;-0.6656;-1.7115;2.8398;1.0758;0.3169;-1.0677;-0.3992;0.0;19.26;37.39;18.66;325.96;23.23;94.24;0.0;56.531;39.46881;-0.341259;63.6;NaN;;28.28;;0 / 33;16667;2021-10-20 19:25:25:157
7.877;-13.7321;-0.0761;-9.1746;-3.0981;-1.5371;-1.7115;2.8398;1.0758;0.206;-1.2038;-0.1833;0.0;19.26;37.39;18.66;325.96;23.23;94.24;0.0;56.531;39.46881;-0.341259;63.6;NaN;;28.28;;0 / 33;16717;2021-10-20 19:25:25:207
7.877;-13.7321;-0.0761;-8.6287;-4.6017;-0.7566;-5.0129;4.3815;-0.7135;0.206;-1.2038;-0.1833;0.0;20.94;36.79;16.44;336.06;18.42;99.51;0.0;53.578;39.46881;-0.341259;63.6;NaN;;28.28;;0 / 33;16766;2021-10-20 19:25:25:256
1.869;-10.476;-2.053;-9.5816;1.9249;0.8236;2.6969;-0.4851;-0.7105;0.3339;-1.1923;-0.5005;0.0;22.26;36.24;14.76;328.07;27.98;95.01;0.0;53.578;39.46881;-0.341259;63.6;NaN;;28.28;;0 / 33;16817;2021-10-20 19:25:25:307
-2.254;-9.6079;-0.433;-9.5816;1.9249;0.8236;2.6969;-0.4851;-0.7105;0.2947;-0.5632;0.5834;0.0;22.26;36.24;14.76;328.07;27.98;95.01;0.0;53.578;39.46881;-0.341259;63.6;NaN;;28.28;;0 / 33;16867;2021-10-20 19:25:25:357
2.5061;-13.3901;-0.16;-9.6391;-1.7957;-0.1101;0.3742;5.1319;-1.1758;0.2947;-0.5632;0.5834;0.0;21.66;36.0;15.24;336.84;-11.32;85.09;0.0;53.578;39.46881;-0.341259;63.6;NaN;;28.28;;0 / 33;16916;2021-10-20 19:25:25:406
1.637;-10.4329;-1.3931;-9.5672;-1.6712;-1.3599;0.3978;0.8436;0.8055;0.2113;0.0274;1.0005;0.0;19.56;35.64;16.86;336.84;-11.32;85.09;0.0;53.578;39.46881;-0.341259;63.6;NaN;;28.28;;0 / 33;16967;2021-10-20 19:25:25:457
1.16;-7.7599;-1.266;-9.5672;-1.6712;-1.3599;0.3978;0.8436;0.8055;0.2113;0.0274;1.0005;0.0;19.56;35.64;16.86;336.84;-11.32;85.09;0.0;53.578;39.46881;-0.341259;63.6;NaN;;28.28;;0 / 33;17017;2021-10-20 19:25:25:507
0.0671;-5.17;-0.8711;-9.7252;-0.5363;-1.1301;1.3863;-2.4832;0.1616;-0.062;-0.432;0.1479;0.0;18.3;35.64;17.64;335.61;3.14;96.63;0.0;53.578;39.46881;-0.341259;63.6;NaN;;28.28;;0 / 33;17066;2021-10-20 19:25:25:556
0.0671;-5.17;-0.8711;-9.6199;-0.4214;-1.8627;1.4259;-5.2746;-0.0272;-0.3223;-0.1631;0.2782;0.0;18.3;35.64;17.64;335.61;3.14;96.63;0.0;53.578;39.46881;-0.341259;63.6;NaN;;28.28;;0 / 33;17117;2021-10-20 19:25:25:607
0.8351;-5.3779;-1.946;-8.4994;-2.7485;-4.0462;1.4259;-5.2746;-0.0272;-0.3223;-0.1631;0.2782;0.0;16.86;36.06;16.5;339.03;2.46;100.96;0.0;60.762;39.46881;-0.341259;63.6;NaN;;28.28;;0 / 33;17167;2021-10-20 19:25:25:657
1.5791;-5.507;-2.218;-9.4332;-1.3791;-2.2889;-1.0152;-2.911;1.9782;-0.4887;-0.5023;0.098;0.0;15.0;36.84;14.4;339.03;2.46;100.96;0.0;60.762;39.46881;-0.341259;63.6;NaN;;28.28;;0 / 33;17217;2021-10-20 19:25:25:707
3.3431;-9.4969;-1.8019;-8.5904;-3.8259;-2.7821;-1.7609;-0.0221;0.0255;-0.4106;-1.0238;-0.6803;0.0;15.0;36.84;14.4;339.03;2.46;100.96;0.0;60.762;39.46881;-0.341259;63.6;NaN;;28.28;;0 / 33;17266;2021-10-20 19:25:25:756
2.108;-7.729;-4.2461;-8.5904;-3.8259;-2.7821;-1.7609;-0.0221;0.0255;-0.4106;-1.0238;-0.6803;0.0;13.74;37.74;11.34;347.81;22.96;107.94;0.0;60.762;39.46881;-0.341259;63.6;NaN;;28.28;;0 / 33;17317;2021-10-20 19:25:25:807
3.09;-8.8009;-1.591;-8.8394;-2.5618;-3.395;-0.1244;-1.6563;2.1597;-0.183;-1.4187;-0.8981;0.0;12.79;38.46;7.44;356.74;15.14;111.01;0.0;60.762;39.46881;-0.341259;63.6;NaN;;28.28;;0 / 33;17367;2021-10-20 19:25:25:857
3.09;-8.8009;-1.591;-9.5146;-1.7669;-1.5993;0.4916;0.8069;-0.6341;-0.183;-1.4187;-0.8981;0.0;12.79;38.46;7.44;356.74;15.14;111.01;0.0;60.762;39.46881;-0.341259;63.6;NaN;;28.28;;0 / 33;17416;2021-10-20 19:25:25:906
2.106;-14.459;-5.361;-9.596;-0.34;1.9968;1.7271;7.6096;-5.8786;0.1294;-1.426;-0.55;0.0;12.24;38.89;3.36;356.74;15.14;111.01;0.0;56.631;39.46881;-0.341259;63.6;NaN;;28.28;;0 / 33;17466;2021-10-20 19:25:25:956
7.9871;-15.9701;2.6471;-8.9926;-3.5721;-1.6041;1.7271;7.6096;-5.8786;1.0138;0.4917;0.202;0.0;12.24;38.89;3.36;356.74;15.14;111.01;0.0;56.631;39.46881;-0.341259;63.6;NaN;;28.28;;0 / 33;17517;2021-10-20 19:25:26:007
3.114;-10.4861;1.5341;-9.596;-1.9585;0.5363;0.4324;2.5472;1.2044;1.0138;0.4917;0.202;0.0;11.76;38.94;0.54;2.01;21.36;100.11;0.0;56.631;39.46881;-0.341259;63.6;NaN;;28.28;;0 / 33;17567;2021-10-20 19:25:26:057
1.5671;-9.976;0.284;-9.596;-1.9585;0.5363;0.6036;0.4723;-1.3921;0.8469;-0.2108;0.1052;0.0;10.99;38.64;-0.96;2.01;21.36;100.11;0.0;56.631;39.46881;-0.341259;63.6;NaN;;28.28;;0 / 33;17616;2021-10-20 19:25:26:106
2.714;-5.952;-2.034;-9.5577;-2.1404;0.4788;-0.0476;-2.4922;0.0203;0.5829;-0.8262;-0.3323;0.0;10.99;38.64;-0.96;2.01;21.36;100.11;0.0;56.631;39.46881;-0.341259;63.6;NaN;;28.28;;0 / 33;17667;2021-10-20 19:25:26:157
4.595;-7.183;-1.7951;-7.8817;-4.7836;-3.3375;-0.0476;-2.4922;0.0203;0.5829;-0.8262;-0.3323;0.0;10.99;38.46;-1.2;10.39;29.2;112.95;0.0;56.631;39.46881;-0.341259;63.6;NaN;;28.28;;0 / 33;17717;2021-10-20 19:25:26:207
4.595;-7.183;-1.7951;-7.3933;-6.4117;0.6273;-2.1447;-2.2757;0.879;0.1389;-1.4102;-0.6614;0.0;10.86;38.94;-0.06;357.62;40.83;85.15;0.0;58.557;39.46881;-0.341259;63.6;NaN;;28.28;;0 / 33;17766;2021-10-20 19:25:26:256
-1.34;-4.37;-1.7921;-9.3087;-2.6097;1.6472;4.3043;-4.9227;0.6841;-0.0715;-1.118;-0.8944;0.0;10.86;38.94;-0.06;357.62;40.83;85.15;0.0;58.557;39.46881;-0.341259;63.6;NaN;;28.28;;0 / 33;17817;2021-10-20 19:25:26:307
3.6401;-8.3771;-2.2519;-9.1171;-2.4421;-2.6576;4.3043;-4.9227;0.6841;-0.0715;-1.118;-0.8944;0.0;10.2;39.6;1.14;355.67;15.43;79.97;0.0;58.557;39.46881;-0.341259;63.6;NaN;;28.28;;0 / 33;17867;2021-10-20 19:25:26:357
1.1291;-9.6409;-4.796;-8.4084;-4.0701;-2.9832;0.9528;0.0532;1.3371;-0.0298;-0.7608;0.0696;0.0;10.2;39.6;1.14;355.67;15.43;79.97;0.0;58.557;39.46881;-0.341259;63.6;NaN;;28.28;;0 / 33;17916;2021-10-20 19:25:26:406
6.0221;-19.5101;-7.6781;-8.4084;-4.0701;-2.9832;-3.0539;3.8216;2.9398;-0.0298;-0.7608;0.0696;0.0;9.24;39.84;2.4;1.98;24.52;109.53;0.0;58.557;39.46881;-0.341259;63.6;NaN;;28.28;;0 / 33;17967;2021-10-20 19:25:26:457
3.456;-13.363;-2.5511;-8.9687;-2.2218;-3.2848;-0.2166;11.9112;2.7026;-0.3481;-1.0801;-0.193;0.0;8.7;40.14;4.74;1.98;24.52;109.53;0.0;58.557;39.46881;-0.341259;63.6;NaN;;28.28;;0 / 33;18017;2021-10-20 19:25:26:507
3.456;-13.363;-2.5511;-9.2512;-1.9585;-2.5953;-0.2166;11.9112;2.7026;-0.2276;-0.8752;0.1283;0.0;8.7;40.14;4.74;1.98;24.52;109.53;0.0;58.557;39.46881;-0.341259;63.6;NaN;;28.28;;0 / 33;18067;2021-10-20 19:25:26:557
1.701;-6.551;-3.214;-9.2512;-1.9585;-2.5953;2.3894;-2.0831;0.622;-0.2276;-0.8752;0.1283;0.0;7.74;40.69;8.16;351.75;11.52;105.67;0.0;61.824;39.46881;-0.341259;63.6;NaN;;28.28;;0 / 33;18116;2021-10-20 19:25:26:606
-0.6791;-3.173;-1.242;-9.1985;-1.7095;-2.9305;1.8778;-4.4519;-1.0657;-0.2061;0.0238;0.4572;0.0;6.36;41.29;8.94;351.75;11.52;105.67;0.0;61.824;39.46881;-0.341259;63.6;NaN;;28.28;;0 / 33;18166;2021-10-20 19:25:26:656
-0.035;-2.958;0.174;-9.6055;0.4262;-1.9201;1.8778;-4.4519;-1.0657;-0.2061;0.0238;0.4572;0.0;6.36;41.29;8.94;351.75;11.52;105.67;0.0;61.824;39.46881;-0.341259;63.6;NaN;;28.28;;0 / 33;18217;2021-10-20 19:25:26:707
0.746;-6.771;-1.287;-9.7109;-1.1444;-0.7518;2.2997;-6.1762;-2.9233;-0.1966;-0.6775;0.5664;0.0;6.79;42.06;6.19;353.91;-2.49;101.3;0.0;61.824;39.46881;-0.341259;63.6;NaN;;28.28;;0 / 33;18267;2021-10-20 19:25:26:757
3.039;-13.6699;-4.717;-9.7109;-1.1444;-0.7518;0.12;-0.5362;0.5465;0.1889;1.2353;1.0465;0.0;6.79;42.06;6.19;353.91;-2.49;101.3;0.0;61.824;39.46881;-0.341259;63.6;NaN;;28.28;;0 / 33;18317;2021-10-20 19:25:26:807
3.039;-13.6699;-4.717;-9.074;-2.0159;-3.1316;-0.8717;3.3579;5.2061;0.1889;1.2353;1.0465;0.0;7.69;42.36;2.1;358.07;6.7;94.43;0.0;61.824;39.46881;-0.341259;63.6;NaN;;28.28;;0 / 33;18366;2021-10-20 19:25:26:856
3.078;-10.735;-2.2061;-9.7636;-0.8092;-0.498;-0.8717;3.3579;5.2061;-0.2373;-1.7336;-0.6691;0.0;9.3;42.36;-2.34;358.07;6.7;94.43;0.0;61.143;39.46881;-0.341259;63.6;NaN;;28.28;;0 / 33;18416;2021-10-20 19:25:26:906
1.914;-14.8159;5.031;-7.9583;-4.4772;3.5769;2.0098;8.8642;-3.3065;0.5422;-0.6155;-0.0597;0.0;9.3;42.36;-2.34;358.07;6.7;94.43;0.0;61.143;39.46881;-0.341259;63.6;NaN;;28.28;;0 / 33;18467;2021-10-20 19:25:26:957
5.96;-17.081;-3.5179;-9.3134;-2.2314;-2.1165;-7.4791;7.7751;-1.9677;0.5422;-0.6155;-0.0597;0.0;11.34;42.3;-4.2;358.46;27.16;65.8;0.0;61.143;39.46881;-0.341259;63.6;NaN;;28.28;;0 / 33;18516;2021-10-20 19:25:27:006
1.8401;-11.1041;-1.323;-9.3134;-2.2314;-2.1165;-7.4791;7.7751;-1.9677;0.8877;1.3192;-0.1537;0.0;12.0;41.89;-5.94;12.45;13.15;102.8;0.0;61.143;39.46881;-0.341259;63.6;NaN;;28.28;;0 / 33;18566;2021-10-20 19:25:27:056
3.324;-8.739;-0.05;-9.3661;-2.2889;-1.8004;0.3298;1.6504;-0.1492;0.4654;0.238;-0.5338;0.0;12.0;41.89;-5.94;12.45;13.15;102.8;0.0;61.143;39.46881;-0.341259;63.6;NaN;;28.28;;0 / 33;18617;2021-10-20 19:25:27:107
3.324;-8.739;-0.05;-9.1506;-3.5195;-0.2825;-0.8725;-0.6942;-1.1151;0.4654;0.238;-0.5338;0.0;11.76;41.1;-7.91;13.8;21.03;91.77;0.0;61.143;39.46881;-0.341259;63.6;NaN;;28.28;;0 / 33;18667;2021-10-20 19:25:27:157
4.212;-8.3719;-3.884;-8.0589;-4.5969;-3.1795;-2.4266;-0.4629;2.3658;0.2064;-0.5856;-0.3657;0.0;11.76;41.1;-7.91;13.8;21.03;91.77;0.0;61.143;39.46881;-0.341259;63.6;NaN;;28.28;;0 / 33;18716;2021-10-20 19:25:27:206
3.011;-3.9971;1.35;-5.5976;1.1109;-7.9775;-2.4266;-0.4629;2.3658;0.2064;-0.5856;-0.3657;0.0;11.7;41.34;-7.44;18.73;27.95;111.53;0.0;54.049;39.46881;-0.341259;63.6;NaN;;28.28;;0 / 33;18766;2021-10-20 19:25:27:256
1.826;-5.17;1.9241;-8.9926;-2.6001;-2.9257;3.7688;-5.4098;4.2271;-0.1331;-0.7506;-0.6772;0.0;10.86;42.6;-4.5;14.7;-6.5;144.94;0.0;54.049;39.46881;-0.341259;63.6;NaN;;28.28;;0 / 33;18817;2021-10-20 19:25:27:307
4.698;-8.76;-1.941;-8.9926;-2.6001;-2.9257;0.993;-2.0407;0.8958;0.0235;-0.5712;-0.0921;0.0;10.86;42.6;-4.5;14.7;-6.5;144.94;0.0;54.049;39.46881;-0.341259;63.6;NaN;;28.28;;0 / 33;18866;2021-10-20 19:25:27:356
6.5051;-11.0531;-3.937;-8.5712;-3.7541;-2.9353;-2.297;0.0146;0.2058;0.0235;-0.5712;-0.0921;0.0;10.39;44.29;-1.91;7.84;22.51;108.9;0.0;54.049;39.46881;-0.341259;63.6;NaN;;28.28;;0 / 33;18916;2021-10-20 19:25:27:406
6.5051;-11.0531;-3.937;-8.3031;-3.1316;-4.1707;-2.297;0.0146;0.2058;-0.1639;0.2937;-0.2034;0.0;10.2;45.24;-0.41;6.44;18.63;116.67;0.0;54.049;39.46881;-0.341259;63.6;NaN;;28.28;;0 / 33;18967;2021-10-20 19:25:27:457
3.384;-19.11;-6.053;-9.3805;0.498;-2.8252;-2.953;11.1054;4.8016;-0.4302;-0.5611;0.0524;0.0;10.2;45.24;-0.41;6.44;18.63;116.67;0.0;54.049;39.46881;-0.341259;63.6;NaN;;28.28;;0 / 33;19017;2021-10-20 19:25:27:507
2.7;-11.97;-4.05;-9.3805;0.498;-2.8252;0.3481;2.8897;1.8883;-0.4302;-0.5611;0.0524;0.0;8.4;45.54;2.94;359.3;-2.91;106.76;0.0;60.811;39.46881;-0.341259;63.6;NaN;;28.28;;0 / 33;19066;2021-10-20 19:25:27:556
1.613;-6.4121;-2.34;-8.6766;-2.8778;-3.5578;1.1366;-2.6905;-0.1158;-0.3228;-0.7631;0.3468;0.0;8.4;45.54;2.94;359.3;-2.91;106.76;0.0;60.811;39.46881;-0.341259;63.6;NaN;;28.28;;0 / 33;19117;2021-10-20 19:25:27:607
-0.663;-2.814;-0.248;-9.6295;1.1779;-1.4605;1.1366;-2.6905;-0.1158;-0.1658;-0.3649;0.4522;0.0;6.66;45.79;5.7;356.0;17.06;112.3;0.0;60.811;39.46881;-0.341259;63.6;NaN;;28.28;;0 / 33;19167;2021-10-20 19:25:27:657
0.576;-2.984;-1.136;-9.0261;-1.7334;-3.4189;2.7583;-6.4325;-2.7658;-0.1658;-0.3649;0.4522;0.0;6.54;45.49;4.74;355.12;-6.9;98.62;0.0;60.811;39.46881;-0.341259;63.6;NaN;;28.28;;0 / 33;19217;2021-10-20 19:25:27:707
0.344;-7.65;-1.213;-9.0261;-1.7334;-3.4189;1.4156;-3.2554;-1.0179;0.173;-0.4797;0.7259;0.0;6.54;45.49;4.74;355.12;-6.9;98.62;0.0;60.811;39.46881;-0.341259;63.6;NaN;;28.28;;0 / 33;19267;2021-10-20 19:25:27:757
0.344;-7.65;-1.213;-9.4284;-0.6608;-2.6193;1.4156;-3.2554;-1.0179;0.173;-0.4797;0.7259;0.0;7.26;45.0;0.84;2.05;10.18;110.75;0.0;60.811;39.46881;-0.341259;63.6;NaN;;28.28;;0 / 33;19317;2021-10-20 19:25:27:807
5.555;-12.2861;-3.2;-8.1738;-3.3758;-4.2329;-1.7067;2.1678;0.6717;0.066;0.1183;0.2713;0.0;9.24;43.8;-4.5;2.05;10.18;110.75;0.0;60.024;39.46881;-0.341259;63.6;NaN;;28.28;;0 / 33;19366;2021-10-20 19:25:27:856
2.522;-15.0289;-4.404;-8.1738;-3.3758;-4.2329;-0.8318;5.7359;1.741;-0.0931;-0.7144;-0.5336;0.0;9.24;43.8;-4.5;2.05;10.18;110.75;0.0;60.024;39.46881;-0.341259;63.6;NaN;;28.28;;0 / 33;19416;2021-10-20 19:25:27:906
2.3141;-13.052;6.209;-8.5329;-0.9289;4.7405;-0.4881;3.725;-8.6381;-0.0931;-0.7144;-0.5336;0.0;11.16;42.84;-7.8;2.28;5.44;60.95;0.0;60.024;39.46881;-0.341259;63.6;NaN;;28.28;;0 / 33;19467;2021-10-20 19:25:27:957
1.077;-9.888;-1.972;-8.9591;-3.395;-2.0877;-0.4881;3.725;-8.6381;0.6634;0.8293;-0.1515;0.0;11.16;42.84;-7.8;2.28;5.44;60.95;0.0;60.024;39.46881;-0.341259;63.6;NaN;;28.28;;0 / 33;19517;2021-10-20 19:25:28:007
2.7041;-8.468;-1.5941;-9.1794;-3.3471;0.8667;0.8887;0.4764;-0.034;0.928;1.7355;-0.0643;0.0;12.0;41.89;-8.21;16.29;20.26;103.12;0.0;60.024;39.46881;-0.341259;63.6;NaN;;28.28;;0 / 33;19566;2021-10-20 19:25:28:056
2.7041;-8.468;-1.5941;-9.0597;-3.7302;-0.4549;-1.5558;-0.3028;-0.0138;0.928;1.7355;-0.0643;0.0;12.49;41.1;-9.24;16.29;20.26;103.12;0.0;60.024;39.46881;-0.341259;63.6;NaN;;28.28;;0 / 33;19617;2021-10-20 19:25:28:107
3.015;-9.5621;-1.201;-8.3558;-4.2473;-2.8826;-0.8904;-0.6379;1.3793;0.1683;0.1122;-0.4019;0.0;12.79;41.16;-9.66;17.78;22.35;92.87;0.0;60.024;39.46881;-0.341259;63.6;NaN;;28.28;;0 / 33;19666;2021-10-20 19:25:28:156
4.9541;-8.296;-2.403;-8.3558;-4.2473;-2.8826;-0.8904;-0.6379;1.3793;0.1683;0.1122;-0.4019;0.0;12.79;41.16;-9.66;17.78;22.35;92.87;0.0;57.428;39.46881;-0.341259;63.6;NaN;;28.28;;0 / 33;19716;2021-10-20 19:25:28:206
4.119;-5.694;0.576;-7.9248;-5.7269;0.7949;-1.9605;-1.435;0.2962;-0.2952;-0.3857;-0.7201;0.0;13.2;41.7;-7.86;17.78;22.35;92.87;0.0;57.428;39.46881;-0.341259;63.6;NaN;;28.28;;0 / 33;19766;2021-10-20 19:25:28:256
4.995;-3.683;6.9431;-3.8786;-5.2577;7.3119;-1.9605;-1.435;0.2962;-0.5599;-0.8841;-0.4517;0.0;13.2;41.7;-7.86;17.78;22.35;92.87;0.0;57.428;39.46881;-0.341259;63.6;NaN;;28.28;;0 / 33;19817;2021-10-20 19:25:28:307
3.774;-9.519;-1.194;-9.0549;-3.5913;-1.1301;-1.6191;-5.394;-8.5292;-0.5599;-0.8841;-0.4517;0.0;12.9;42.66;-4.56;343.4;32.42;27.94;0.0;57.428;39.46881;-0.341259;63.6;NaN;;28.28;;0 / 33;19866;2021-10-20 19:25:28:356
3.774;-9.519;-1.194;-9.0549;-3.5913;-1.1301;0.876;-1.2628;0.7236;-0.1525;0.4066;-0.0698;0.0;12.84;43.26;-1.61;5.8;21.48;97.11;0.0;57.428;39.46881;-0.341259;63.6;NaN;;28.28;;0 / 33;19916;2021-10-20 19:25:28:406
5.4281;-9.7849;-5.076;-7.8147;-4.3287;-4.0462;-3.3767;4.952;5.105;-0.4481;0.406;-0.228;0.0;12.84;43.26;-1.61;5.8;21.48;97.11;0.0;57.428;39.46881;-0.341259;63.6;NaN;;28.28;;0 / 33;19967;2021-10-20 19:25:28:457
3.071;-22.629;-6.12;-9.3853;-1.2737;-2.5379;-3.3767;4.952;5.105;-0.4481;0.406;-0.228;0.0;14.16;43.14;0.06;11.01;26.19;117.37;0.0;59.267;39.46881;-0.341259;63.6;NaN;;28.28;;0 / 33;20016;2021-10-20 19:25:28:506
0.792;-8.8781;-1.668;-9.6007;-0.8571;-1.8004;3.7127;2.8609;-0.1568;-0.3524;-0.4867;0.569;0.0;13.86;43.44;2.46;0.85;5.01;100.62;0.0;59.267;39.46881;-0.341259;63.6;NaN;;28.28;;0 / 33;20067;2021-10-20 19:25:28:557
3.9011;-8.09;-3.832;-8.1259;-3.9169;-3.8499;1.3107;-0.5828;1.6881;-0.3524;-0.4867;0.569;0.0;13.86;43.44;2.46;0.85;5.01;100.62;0.0;59.267;39.46881;-0.341259;63.6;NaN;;28.28;;0 / 33;20117;2021-10-20 19:25:28:607
-1.06;-2.556;-0.229;-9.0405;3.7206;-0.7757;1.3149;-5.2051;-1.6811;-0.1739;-0.0912;0.7829;0.0;12.0;43.74;4.86;1.01;23.54;115.35;0.0;59.267;39.46881;-0.341259;63.6;NaN;;28.28;;0 / 33;20166;2021-10-20 19:25:28:656
1.3421;-4.224;-2.467;-9.0405;3.7206;-0.7757;1.3149;-5.2051;-1.6811;-0.2666;0.3003;0.4781;0.0;12.0;43.74;4.86;1.01;23.54;115.35;0.0;59.267;39.46881;-0.341259;63.6;NaN;;28.28;;0 / 33;20217;2021-10-20 19:25:28:707
1.3421;-4.224;-2.467;-8.169;-2.5809;-4.7692;1.1342;-3.1415;-0.1075;-0.2666;0.3003;0.4781;0.0;11.04;44.04;4.14;1.01;23.54;115.35;0.0;59.267;39.46881;-0.341259;63.6;NaN;;28.28;;0 / 33;20266;2021-10-20 19:25:28:756
0.392;-8.2309;-1.4981;-9.6391;-0.4453;-1.7382;2.0008;-0.849;-1.3663;-0.2666;0.3003;0.4781;0.0;11.16;43.69;-0.36;2.57;2.6;100.22;0.0;59.358;39.46881;-0.341259;63.6;NaN;;28.28;;0 / 33;20316;2021-10-20 19:25:28:806
2.2811;-10.599;-6.163;-8.3366;-1.7909;-4.8459;-0.1874;1.418;3.4057;0.0168;-0.3033;0.2841;0.0;11.16;43.69;-0.36;2.57;2.6;100.22;0.0;59.358;39.46881;-0.341259;63.6;NaN;;28.28;;0 / 33;20367;2021-10-20 19:25:28:857
1.35;-13.7891;-0.213;-9.7588;-0.9529;-0.1437;-0.1874;1.418;3.4057;0.0168;-0.3033;0.2841;0.0;12.9;41.76;-6.0;16.41;10.52;120.17;0.0;59.358;39.46881;-0.341259;63.6;NaN;;28.28;;0 / 33;20416;2021-10-20 19:25:28:906
10.283;-16.4269;-0.0161;-8.3175;-5.2002;-0.0048;-0.7892;7.9194;-5.9011;0.4947;-0.5472;0.1139;0.0;14.1;39.96;-8.34;16.41;10.52;120.17;0.0;59.358;39.46881;-0.341259;63.6;NaN;;28.28;;0 / 33;20466;2021-10-20 19:25:28:956
1.524;-8.428;0.344;-9.6438;-1.7334;0.3879;-7.4756;8.6407;-1.603;0.688;0.5735;-0.3341;0.0;14.1;39.96;-8.34;16.41;10.52;120.17;0.0;59.358;39.46881;-0.341259;63.6;NaN;;28.28;;0 / 33;20517;2021-10-20 19:25:29:007
1.524;-8.428;0.344;-9.6438;-1.7334;0.3879;-7.4756;8.6407;-1.603;0.688;0.5735;-0.3341;0.0;14.76;39.49;-8.76;13.24;10.18;87.7;0.0;59.358;39.46881;-0.341259;63.6;NaN;;28.28;;0 / 33;20567;2021-10-20 19:25:29:057
0.8321;-9.981;-1.354;-9.6869;-0.8092;-1.312;1.8083;1.9603;-0.1912;0.6236;0.5837;-0.2276;0.0;14.76;39.49;-8.76;13.24;10.18;87.7;0.0;59.358;39.46881;-0.341259;63.6;NaN;;28.28;;0 / 33;20616;2021-10-20 19:25:29:106
3.528;-5.883;-0.663;-8.3653;-5.0278;-0.9337;-1.0663;-3.5316;-0.656;0.6236;0.5837;-0.2276;0.0;15.19;38.89;-9.54;17.53;4.73;97.71;0.0;58.306;39.46881;-0.341259;63.6;NaN;;28.28;;0 / 33;20667;2021-10-20 19:25:29:157
3.4871;-7.046;-2.001;-8.5234;-4.2186;-2.4086;-1.0663;-3.5316;-0.656;0.3079;-0.081;-0.0483;0.0;15.66;38.4;-9.36;24.36;25.47;105.78;0.0;58.306;39.46881;-0.341259;63.6;NaN;;28.28;;0 / 33;20717;2021-10-20 19:25:29:207
0.83;-5.052;-0.962;-9.5146;-1.5419;-1.8004;-0.9053;-3.4883;-1.2265;-0.0723;0.0866;-0.848;0.0;15.66;38.4;-9.36;24.36;25.47;105.78;0.0;58.306;39.46881;-0.341259;63.6;NaN;;28.28;;0 / 33;20766;2021-10-20 19:25:29:256
3.219;-8.023;-1.285;-9.007;-3.6105;-1.4365;-1.0046;-0.3981;-0.9551;-0.0723;0.0866;-0.848;0.0;16.14;37.8;-9.11;18.5;9.05;100.72;0.0;58.306;39.46881;-0.341259;63.6;NaN;;28.28;;0 / 33;20817;2021-10-20 19:25:29:307
3.219;-8.023;-1.285;-9.007;-3.6105;-1.4365;-1.0046;-0.3981;-0.9551;-0.0279;0.0279;-0.3795;0.0;16.69;36.6;-9.41;21.92;21.6;99.06;0.0;58.306;39.46881;-0.341259;63.6;NaN;;28.28;;0 / 33;20866;2021-10-20 19:25:29:356
3.537;-10.62;-5.318;-8.4036;-2.7964;-4.209;-0.1434;1.5205;3.8649;-0.345;-0.5258;-0.1712;0.0;16.69;36.6;-9.41;21.92;21.6;99.06;0.0;58.306;39.46881;-0.341259;63.6;NaN;;28.28;;0 / 33;20917;2021-10-20 19:25:29:407
9.921;-13.598;-3.779;-7.7333;-5.6407;-2.1452;-6.3638;4.6135;2.0635;-0.345;-0.5258;-0.1712;0.0;17.04;35.76;-10.01;33.32;35.1;105.5;0.0;55.883;39.46881;-0.341259;63.6;NaN;;28.28;;0 / 33;20966;2021-10-20 19:25:29:456
0.0191;-19.374;4.734;-9.5289;-0.0048;2.3272;3.6961;10.458;-6.4637;-0.1088;0.0374;-0.3473;0.0;17.04;35.76;-10.01;33.32;35.1;105.5;0.0;55.883;39.46881;-0.341259;63.6;NaN;;28.28;;0 / 33;21017;2021-10-20 19:25:29:507
7.58;-14.591;-5.347;-8.2791;-4.3;-3.0311;3.6961;10.458;-6.4637;-0.1088;0.0374;-0.3473;0.0;12.9;36.24;-9.6;10.44;0.03;76.28;0.0;55.883;39.46881;-0.341259;63.6;NaN;;28.28;;0 / 33;21066;2021-10-20 19:25:29:556
2.3861;-9.998;2.558;-9.2608;-2.2075;2.3607;-4.452;2.4089;0.4989;0.3901;0.2031;0.3567;0.0;5.1;37.8;-7.2;14.04;26.0;110.11;0.0;55.883;39.46881;-0.341259;63.6;NaN;;28.28;;0 / 33;21117;2021-10-20 19:25:29:607
2.3861;-9.998;2.558;-9.2608;-2.2075;2.3607;-4.452;2.4089;0.4989;0.6146;-0.0206;0.543;0.0;5.1;37.8;-7.2;14.04;26.0;110.11;0.0;55.883;39.46881;-0.341259;63.6;NaN;;28.28;;0 / 33;21167;2021-10-20 19:25:29:657
-1.278;-4.868;1.2851;-9.1985;2.3942;2.4229;3.9939;-2.6562;-3.1087;0.6146;-0.0206;0.543;0.0;-2.21;38.1;-4.86;8.29;-14.13;75.24;0.0;55.883;39.46881;-0.341259;63.6;NaN;;28.28;;0 / 33;21217;2021-10-20 19:25:29:707
-0.828;-7.7051;1.448;-9.5864;1.0199;1.8004;3.2156;-2.9191;-1.0507;0.744;1.1681;0.5657;0.0;-8.7;36.96;-4.31;8.84;-5.97;79.36;0.0;55.883;39.46881;-0.341259;63.6;NaN;;28.28;;0 / 33;21267;2021-10-20 19:25:29:757
-0.6409;-8.107;-3.305;-9.0597;0.7135;-3.6871;3.4882;-1.6627;1.0434;0.6417;-9.0501;0.8112;0.0;-8.7;36.96;-4.31;8.84;-5.97;79.36;0.0;61.554;39.46881;-0.341259;63.6;NaN;;28.28;;0 / 33;21317;2021-10-20 19:25:29:807
5.354;-10.6339;-4.5379;-8.1834;-4.1228;-3.4955;-2.2129;-0.0377;2.4423;0.6417;-9.0501;0.8112;0.0;-13.44;35.94;-4.56;359.56;-4.17;112.15;0.0;61.554;39.46881;-0.341259;63.6;NaN;;28.28;;0 / 33;21366;2021-10-20 19:25:29:856
5.8931;-12.305;-7.111;-7.8482;-3.7541;-4.5346;-2.2129;-0.0377;2.4423;-0.2663;-2.5598;-0.6875;0.0;-13.44;35.94;-4.56;359.56;-4.17;112.15;0.0;61.554;39.46881;-0.341259;63.6;NaN;;28.28;;0 / 33;21416;2021-10-20 19:25:29:906
5.8931;-12.305;-7.111;-7.8482;-3.7541;-4.5346;-4.3012;2.8298;5.1106;-0.2663;-2.5598;-0.6875;0.0;-16.01;34.8;-4.44;353.26;22.5;120.02;0.0;61.554;39.46881;-0.341259;63.6;NaN;;28.28;;0 / 33;21467;2021-10-20 19:25:29:957
1.0841;-17.308;3.296;-9.6199;-0.5985;1.8244;5.1858;0.2766;-4.5055;-0.6128;-0.534;-1.1146;0.0;-18.11;33.84;-3.66;11.77;3.5;79.26;0.0;61.554;39.46881;-0.341259;63.6;NaN;;28.28;;0 / 33;21517;2021-10-20 19:25:30:007
0.914;-3.8389;-0.244;-8.6479;-3.8882;2.5187;5.1858;0.2766;-4.5055;0.8995;-2.9122;-0.6077;0.0;-18.11;33.84;-3.66;11.77;3.5;79.26;0.0;61.554;39.46881;-0.341259;63.6;NaN;;28.28;;0 / 33;21567;2021-10-20 19:25:30:057
3.348;-11.544;0.6701;-9.5146;-2.375;0.0;-1.9286;1.4082;-3.654;0.8995;-2.9122;-0.6077;0.0;-19.61;33.0;-3.66;11.77;3.5;79.26;0.0;60.016;39.46881;-0.341259;63.6;NaN;;28.28;;0 / 33;21616;2021-10-20 19:25:30:106
2.7791;-8.664;-1.031;-9.5146;-2.375;0.0;-0.756;-0.1335;-0.4926;2.2622;-5.6365;0.0411;0.0;-19.91;32.7;-4.61;7.72;14.02;90.0;0.0;60.016;39.46881;-0.341259;63.6;NaN;;28.28;;0 / 33;21667;2021-10-20 19:25:30:157
3.5561;-8.8871;-0.6461;-8.6048;-4.6926;0.3591;-0.756;-0.1335;-0.4926;1.2283;-2.0424;-0.956;0.0;-19.91;32.7;-4.61;7.72;14.02;90.0;0.0;60.016;39.46881;-0.341259;63.6;NaN;;28.28;;0 / 33;21717;2021-10-20 19:25:30:207
3.5561;-8.8871;-0.6461;-8.6048;-4.6926;0.3591;-1.5783;-0.6993;-0.0613;1.2283;-2.0424;-0.956;0.0;-20.7;32.7;-5.81;10.02;28.59;87.61;0.0;60.016;39.46881;-0.341259;63.6;NaN;;28.28;;0 / 33;21766;2021-10-20 19:25:30:256
1.955;-9.624;0.1931;-9.6103;-1.9441;0.1915;0.364;0.1072;-0.8304;0.0732;-0.1764;-0.5215;0.0;-20.7;32.7;-5.81;10.02;28.59;87.61;0.0;60.016;39.46881;-0.341259;63.6;NaN;;28.28;;0 / 33;21816;2021-10-20 19:25:30:306
2.8001;-9.555;0.909;-9.3757;-2.7438;0.8811;-0.2875;0.0794;-1.3943;0.0732;-0.1764;-0.5215;0.0;-22.31;31.8;-6.36;10.22;11.43;88.86;0.0;60.016;39.46881;-0.341259;63.6;NaN;;28.28;;0 / 33;21867;2021-10-20 19:25:30:357
3.288;-11.159;-0.797;-9.1842;-3.4046;-0.5028;-0.2875;0.0794;-1.3943;0.5743;-0.9971;-0.1349;0.0;-22.31;31.5;-7.14;13.83;16.24;84.63;0.0;60.016;39.46881;-0.341259;63.6;NaN;;28.28;;0 / 33;21917;2021-10-20 19:25:30:407
6.714;-11.853;-0.4609;-9.1842;-3.4046;-0.5028;-1.7412;1.9798;0.3039;0.1778;-0.2738;-0.1955;0.0;-22.31;31.5;-7.14;13.83;16.24;84.63;0.0;57.378;39.46881;-0.341259;63.6;NaN;;28.28;;0 / 33;21966;2021-10-20 19:25:30:456
5.646;-11.357;-1.275;-8.5665;-4.7597;0.4262;-4.3018;4.0269;0.2248;0.1778;-0.2738;-0.1955;0.0;-21.41;32.16;-8.4;13.38;29.03;87.15;0.0;57.378;39.46881;-0.341259;63.6;NaN;;28.28;;0 / 33;22017;2021-10-20 19:25:30:507
-0.6979;-8.176;-0.5119;-9.7731;-0.7278;0.2969;-4.3018;4.0269;0.2248;-0.6179;1.3496;-0.5675;0.0;-22.91;32.4;-6.06;13.38;29.03;87.15;0.0;57.378;39.46881;-0.341259;63.6;NaN;;28.28;;0 / 33;22067;2021-10-20 19:25:30:557
-0.6979;-8.176;-0.5119;-9.5816;-0.5985;2.0111;2.429;0.0723;-0.7379;0.2324;-0.3754;0.0411;0.0;-22.91;32.4;-6.06;13.38;29.03;87.15;0.0;57.378;39.46881;-0.341259;63.6;NaN;;28.28;;0 / 33;22116;2021-10-20 19:25:30:606
3.5951;-12.305;1.3781;-9.5816;-0.5985;2.0111;-0.5969;2.9647;-1.7303;0.2324;-0.3754;0.0411;0.0;-25.86;31.2;0.79;7.64;3.5;78.15;0.0;57.378;39.46881;-0.341259;63.6;NaN;;28.28;;0 / 33;22167;2021-10-20 19:25:30:657
2.025;-11.183;-1.0219;-9.4619;-2.0111;-1.6137;-0.5969;2.9647;-1.7303;0.6787;-2.0977;0.6885;0.0;-25.86;31.2;0.79;7.64;3.5;78.15;0.0;57.378;39.46881;-0.341259;63.6;NaN;;28.28;;0 / 33;22217;2021-10-20 19:25:30:707
2.001;-8.255;-0.435;-9.3422;-2.9832;0.0;-0.1881;0.3442;-0.4951;0.8895;-3.0851;0.027;0.0;-27.9;29.04;7.86;339.55;11.83;99.68;0.0;54.789;39.46881;-0.341259;63.6;NaN;;28.28;;0 / 33;22266;2021-10-20 19:25:30:756
0.0281;-6.3191;-1.184;-9.7827;0.0;-0.7278;1.5475;-1.8758;0.2066;0.8895;-3.0851;0.027;0.0;-29.76;26.89;12.49;332.27;0.0;94.25;0.0;54.789;39.46881;-0.341259;63.6;NaN;;28.28;;0 / 33;22316;2021-10-20 19:25:30:806
2.352;-6.501;-3.279;-8.4515;-1.8962;-4.6017;1.6414;-4.1201;1.5241;0.2762;-2.4522;0.1871;0.0;-29.76;26.89;12.49;332.27;0.0;94.25;0.0;54.789;39.46881;-0.341259;63.6;NaN;;28.28;;0 / 33;22367;2021-10-20 19:25:30:857
2.352;-6.501;-3.279;-9.5385;-1.5036;-1.719;1.6414;-4.1201;1.5241;0.2762;-2.4522;0.1871;0.0;-31.2;24.9;14.46;316.42;11.15;118.57;0.0;54.789;39.46881;-0.341259;63.6;NaN;;28.28;;0 / 33;22417;2021-10-20 19:25:30:907
1.1171;-11.2691;-3.4421;-8.4324;-1.9872;-4.5969;0.4943;0.6716;0.8732;-0.4905;-1.3791;0.0208;0.0;-31.44;25.44;13.5;316.42;11.15;118.57;0.0;54.789;39.46881;-0.341259;63.6;NaN;;28.28;;0 / 33;22466;2021-10-20 19:25:30:956
5.237;-12.932;-3.796;-8.4324;-1.9872;-4.5969;-0.2422;0.1161;3.6926;-0.7708;-0.5779;-0.2379;0.0;-31.44;25.44;13.5;316.42;11.15;118.57;0.0;54.789;39.46881;-0.341259;63.6;NaN;;28.28;;0 / 33;22516;2021-10-20 19:25:31:006
0.347;-6.881;3.068;-9.4523;-1.992;-1.6951;1.7671;-2.5205;-4.9062;-0.7708;-0.5779;-0.2379;0.0;-31.01;26.59;12.54;330.41;11.72;100.17;0.0;60.782;39.46881;-0.341259;63.6;NaN;;28.28;;0 / 33;22567;2021-10-20 19:25:31:057
2.8001;-7.53;-2.6831;-9.3805;-1.0008;2.6911;1.7671;-2.5205;-4.9062;0.8092;-1.4131;-0.1426;0.0;-31.01;26.59;12.54;330.41;11.72;100.17;0.0;60.782;39.46881;-0.341259;63.6;NaN;;28.28;;0 / 33;22616;2021-10-20 19:25:31:106
3.5681;-10.809;4.43;-8.6814;-2.8587;3.5578;-0.2609;-0.3123;4.1656;0.982;-1.1577;-0.0763;0.0;-30.96;26.34;12.9;352.32;5.86;73.99;0.0;60.782;39.46881;-0.341259;63.6;NaN;;28.28;;0 / 33;22667;2021-10-20 19:25:31:157
3.5681;-10.809;4.43;-8.6814;-2.8587;3.5578;-0.2609;-0.3123;4.1656;0.982;-1.1577;-0.0763;0.0;-31.31;26.29;12.96;352.32;5.86;73.99;0.0;60.782;39.46881;-0.341259;63.6;NaN;;28.28;;0 / 33;22717;2021-10-20 19:25:31:207
3.714;-8.988;-4.6811;-8.169;-3.371;-4.2521;-1.6031;0.0151;2.1206;-0.1009;-0.3706;-0.484;0.0;-31.31;26.29;12.96;352.32;5.86;73.99;0.0;60.782;39.46881;-0.341259;63.6;NaN;;28.28;;0 / 33;22766;2021-10-20 19:25:31:256
3.92;-9.359;-1.474;-8.9543;-3.7397;-1.4078;-1.4881;-0.1108;0.6542;-0.1009;-0.3706;-0.484;0.0;-31.91;26.64;12.19;322.57;20.1;117.5;0.0;60.782;39.46881;-0.341259;63.6;NaN;;28.28;;0 / 33;22817;2021-10-20 19:25:31:307
2.951;-7.24;-1.936;-8.8202;-3.5865;-2.3559;1.3438;-3.9624;-2.2095;0.0726;-0.4301;-0.5713;0.0;-32.76;26.64;11.34;331.83;21.45;104.95;0.0;60.782;39.46881;-0.341259;63.6;NaN;;28.28;;0 / 33;22867;2021-10-20 19:25:31:357
-0.2719;-5.136;-4.16;-7.6183;0.3831;-6.1627;1.3438;-3.9624;-2.2095;0.0726;-0.4301;-0.5713;0.0;-32.76;26.64;11.34;331.83;21.45;104.95;0.0;59.16;39.46881;-0.341259;63.6;NaN;;28.28;;0 / 33;22916;2021-10-20 19:25:31:406
1.1771;-4.602;0.485;-9.4523;-2.4134;0.9816;-1.1418;-2.4139;-3.9939;0.0726;-0.4301;-0.5713;0.0;-32.81;25.8;12.54;331.83;21.45;104.95;0.0;59.16;39.46881;-0.341259;63.6;NaN;;28.28;;0 / 33;22967;2021-10-20 19:25:31:457
3.822;-7.7329;-2.3959;-9.4523;-2.4134;0.9816;0.6948;-3.9154;-0.4108;0.0726;-0.4301;-0.5713;0.0;-32.46;24.19;15.54;338.19;14.25;84.07;0.0;59.16;39.46881;-0.341259;63.6;NaN;;28.28;;0 / 33;23017;2021-10-20 19:25:31:507
3.822;-7.7329;-2.3959;-8.4755;-4.1851;-2.6145;-5.5512;7.1891;3.901;0.0726;-0.4301;-0.5713;0.0;-32.46;24.19;15.54;338.19;14.25;84.07;0.0;59.16;39.46881;-0.341259;63.6;NaN;;28.28;;0 / 33;23066;2021-10-20 19:25:31:556
6.807;-19.4411;-8.523;-8.5569;-2.9928;-3.7445;-5.5512;7.1891;3.901;0.0726;-0.4301;-0.5713;0.0;-31.14;23.94;18.84;319.5;25.26;107.14;0.0;59.16;39.46881;-0.341259;63.6;NaN;;28.28;;0 / 33;23117;2021-10-20 19:25:31:607
1.3901;-16.116;-6.422;-9.0836;-0.7853;-3.6152;1.5526;6.9682;4.4426;0.0726;-0.4301;-0.5713;0.0;-30.66;21.9;22.39;306.47;4.59;111.7;0.0;59.16;39.46881;-0.341259;63.6;NaN;;28.28;;0 / 33;23167;2021-10-20 19:25:31:657
0.6581;-6.45;-3.5299;-8.5665;-0.8715;-4.6926;2.0978;-2.6638;1.1454;0.0726;-0.4301;-0.5713;0.0;-30.66;21.9;22.39;306.47;4.59;111.7;0.0;61.927;39.46881;-0.341259;63.6;NaN;;28.28;;0 / 33;23216;2021-10-20 19:25:31:706
-0.004;-4.737;-0.727;-9.6917;0.0;-1.4796;2.3484;-4.4054;-1.9739;0.0726;-0.4301;-0.5713;0.0;-30.71;19.09;25.86;306.47;4.59;111.7;0.0;61.927;39.46881;-0.341259;63.6;NaN;;28.28;;0 / 33;23267;2021-10-20 19:25:31:757
1.251;-3.595;-0.3439;-9.6917;0.0;-1.4796;2.3484;-4.4054;-1.9739;0.0726;-0.4301;-0.5713;0.0;-30.71;19.09;25.86;306.47;4.59;111.7;0.0;61.927;39.46881;-0.341259;63.6;NaN;;28.28;;0 / 33;23317;2021-10-20 19:25:31:807
1.251;-3.595;-0.3439;-9.232;-3.1939;-0.8763;0.8719;-5.5819;-2.4403;0.0726;-0.4301;-0.5713;0.0;-30.6;19.5;27.66;301.72;0.0;98.68;0.0;61.927;39.46881;-0.341259;63.6;NaN;;28.28;;0 / 33;23366;2021-10-20 19:25:31:856
1.098;-7.7981;-1.998;-9.4188;-1.3168;-2.4038;0.7;-1.489;-0.6291;0.0726;-0.4301;-0.5713;0.0;-31.44;21.84;25.5;301.72;0.0;98.68;0.0;61.927;39.46881;-0.341259;63.6;NaN;;28.28;;0 / 33;23417;2021-10-20 19:25:31:907
2.549;-8.906;-2.8841;-8.7101;-2.9257;-3.4237;-0.8284;-0.4434;0.4186;0.4758;-0.9036;-0.1737;0.0;-31.44;21.84;25.5;301.72;0.0;98.68;0.0;61.927;39.46881;-0.341259;63.6;NaN;;28.28;;0 / 33;23467;2021-10-20 19:25:31:957
3.767;-8.076;-4.679;-8.7101;-2.9257;-3.4237;-0.8284;-0.4434;0.4186;-0.3263;-0.1844;-0.4381;0.0;-32.81;24.66;19.69;315.15;17.36;111.46;0.0;59.613;39.46881;-0.341259;63.6;NaN;;28.28;;0 / 33;23517;2021-10-20 19:25:32:007
3.068;-16.9871;-5.0359;-9.074;-2.2266;-2.9784;-1.4204;-0.4795;1.1455;-0.3263;-0.1844;-0.4381;0.0;-33.54;26.7;14.04;323.78;13.12;108.17;0.0;59.613;39.46881;-0.341259;63.6;NaN;;28.28;;0 / 33;23567;2021-10-20 19:25:32:057
1.182;-11.072;6.56;-9.7923;-0.0766;-0.5555;-1.4204;-0.4795;1.1455;-0.5052;0.9555;0.228;0.0;-33.54;26.7;14.04;323.78;13.12;108.17;0.0;59.613;39.46881;-0.341259;63.6;NaN;;28.28;;0 / 33;23616;2021-10-20 19:25:32:106
1.182;-11.072;6.56;-7.106;-6.7038;0.8906;1.9597;9.6185;-1.7645;-0.5052;0.9555;0.228;0.0;-33.96;26.89;11.7;332.97;0.45;93.25;0.0;59.613;39.46881;-0.341259;63.6;NaN;;28.28;;0 / 33;23666;2021-10-20 19:25:32:156
6.7781;-18.411;-4.823;-7.106;-6.7038;0.8906;-4.5086;9.0959;2.7068;1.2544;0.0227;-0.4339;0.0;-33.96;26.89;11.7;332.97;0.45;93.25;0.0;59.613;39.46881;-0.341259;63.6;NaN;;28.28;;0 / 33;23717;2021-10-20 19:25:32:207
1.4261;-9.1549;0.129;-9.6917;-1.4988;0.1293;1.0376;-0.2256;-1.6032;1.3439;-0.1101;-0.4305;0.0;-34.14;26.34;10.56;332.97;0.45;93.25;0.0;59.613;39.46881;-0.341259;63.6;NaN;;28.28;;0 / 33;23766;2021-10-20 19:25:32:256
3.078;-8.3561;-1.278;-9.0214;-3.3615;-1.8579;1.0376;-0.2256;-1.6032;1.3439;-0.1101;-0.4305;0.0;-34.86;25.44;9.6;342.41;8.79;89.24;0.0;59.613;39.46881;-0.341259;63.6;NaN;;28.28;;0 / 33;23817;2021-10-20 19:25:32:307
5.349;-7.544;-3.5209;-9.0214;-3.3615;-1.8579;-0.3619;-1.0122;0.5932;-0.4984;1.1671;0.3011;0.0;-34.86;25.44;9.6;342.41;8.79;89.24;0.0;57.11;39.46881;-0.341259;63.6;NaN;;28.28;;0 / 33;23867;2021-10-20 19:25:32:357
3.497;-3.26;-5.277;-8.6718;-3.9121;-2.3894;-1.1362;-5.0042;-5.9114;-0.1631;0.517;-0.6014;0.0;-36.06;24.66;10.44;331.73;23.51;105.4;0.0;57.11;39.46881;-0.341259;63.6;NaN;;28.28;;0 / 33;23917;2021-10-20 19:25:32:407
3.497;-3.26;-5.277;-7.331;-2.5331;5.9999;-1.1362;-5.0042;-5.9114;-0.1631;0.517;-0.6014;0.0;-36.11;23.76;12.6;21.4;14.97;50.7;0.0;57.11;39.46881;-0.341259;63.6;NaN;;28.28;;0 / 33;23966;2021-10-20 19:25:32:456
4.538;-7.63;-2.001;-7.331;-2.5331;5.9999;0.9712;-2.4597;-6.959;-0.3853;0.5222;-0.4685;0.0;-36.11;23.76;12.6;21.4;14.97;50.7;0.0;57.11;39.46881;-0.341259;63.6;NaN;;28.28;;0 / 33;24017;2021-10-20 19:25:32:507
0.9311;-5.428;-2.568;-8.7628;-1.4988;-4.1372;1.6142;-1.2371;0.675;-0.3853;0.5222;-0.4685;0.0;-35.34;22.69;15.49;21.4;14.97;50.7;0.0;57.11;39.46881;-0.341259;63.6;NaN;;28.28;;0 / 33;24067;2021-10-20 19:25:32:557
6.7181;-13.516;-5.009;-8.3366;-4.142;-3.0837;-3.2025;4.5301;3.2179;-0.686;0.3421;0.2259;0.0;-35.34;22.69;15.49;21.4;14.97;50.7;0.0;57.11;39.46881;-0.341259;63.6;NaN;;28.28;;0 / 33;24117;2021-10-20 19:25:32:607
3.243;-21.65;-5.598;-9.3948;-1.4078;-2.4325;-3.2025;4.5301;3.2179;-0.685;0.0239;0.0344;0.0;-33.84;21.24;18.0;316.16;24.98;110.3;0.0;57.8;39.46881;-0.341259;63.6;NaN;;28.28;;0 / 33;24166;2021-10-20 19:25:32:656
2.463;-9.6199;-3.315;-9.0118;-2.2984;-3.1029;0.247;12.7282;3.4694;-0.685;0.0239;0.0344;0.0;-31.91;17.76;22.86;305.29;8.25;104.52;0.0;57.8;39.46881;-0.341259;63.6;NaN;;28.28;;0 / 33;24217;2021-10-20 19:25:32:707
2.463;-9.6199;-3.315;-9.0118;-2.2984;-3.1029;0.2647;-2.5988;0.6736;-0.2604;-0.5356;0.395;0.0;-31.91;17.76;22.86;305.29;8.25;104.52;0.0;57.8;39.46881;-0.341259;63.6;NaN;;28.28;;0 / 33;24266;2021-10-20 19:25:32:756
1.656;-5.4161;-2.635;-8.5042;-2.5905;-4.1372;1.1928;-3.2964;-1.3028;-0.0314;-0.9639;0.4342;0.0;-30.96;14.16;27.24;295.13;15.32;115.94;0.0;57.8;39.46881;-0.341259;63.6;NaN;;28.28;;0 / 33;24317;2021-10-20 19:25:32:807
-0.505;-3.8201;-0.292;-9.6965;1.2833;-0.7278;1.1928;-3.2964;-1.3028;-0.0314;-0.9639;0.4342;0.0;-30.54;14.4;27.66;295.13;15.32;115.94;0.0;57.8;39.46881;-0.341259;63.6;NaN;;28.28;;0 / 33;24367;2021-10-20 19:25:32:857
0.7751;-3.3101;-1.321;-8.3031;-3.4381;-3.9265;2.4319;-5.6735;-2.0687;0.168;-1.0913;0.0941;0.0;-30.54;14.4;27.66;295.13;15.32;115.94;0.0;57.8;39.46881;-0.341259;63.6;NaN;;28.28;;0 / 33;24417;2021-10-20 19:25:32:907
2.333;-8.284;-1.201;-8.3031;-3.4381;-3.9265;0.0581;-4.0972;-0.9908;0.168;-1.0913;0.0941;0.0;-30.36;17.04;25.44;301.47;20.52;115.31;0.0;61.505;39.46881;-0.341259;63.6;NaN;;28.28;;0 / 33;24466;2021-10-20 19:25:32:956
3.621;-9.7729;-4.634;-9.5002;-1.9776;-1.4126;0.0581;-4.0972;-0.9908;0.4063;-0.8811;0.1874;0.0;-30.36;17.04;25.44;301.47;20.52;115.31;0.0;61.505;39.46881;-0.341259;63.6;NaN;;28.28;;0 / 33;24517;2021-10-20 19:25:33:007
2.577;-17.181;-3.9799;-8.7293;-2.0399;-3.9744;-1.5184;0.5622;1.968;-0.1495;-0.3943;-0.4896;0.0;-30.36;18.96;20.89;313.59;11.63;98.46;0.0;61.505;39.46881;-0.341259;63.6;NaN;;28.28;;0 / 33;24567;2021-10-20 19:25:33:057
2.577;-17.181;-3.9799;-8.7293;-2.0399;-3.9744;-0.3455;8.0411;1.1896;-0.1495;-0.3943;-0.4896;0.0;-29.81;20.64;17.59;313.59;11.63;98.46;0.0;61.505;39.46881;-0.341259;63.6;NaN;;28.28;;0 / 33;24616;2021-10-20 19:25:33:106
4.602;-9.2651;7.286;-7.1874;-3.5626;5.6407;-8.3571;1.6792;-7.8626;0.0945;0.3279;0.4818;0.0;-29.81;20.64;17.59;313.59;11.63;98.46;0.0;61.505;39.46881;-0.341259;63.6;NaN;;28.28;;0 / 33;24667;2021-10-20 19:25:33:157
4.157;-14.352;-6.1541;-8.7149;-2.5235;-3.7302;-8.3571;1.6792;-7.8626;0.9745;-0.0826;-0.3373;0.0;-29.16;20.94;16.39;9.6;21.3;51.87;0.0;61.505;39.46881;-0.341259;63.6;NaN;;28.28;;0 / 33;24716;2021-10-20 19:25:33:206
0.66;-9.062;-1.1891;-9.7013;-0.6991;-1.2689;-2.0932;3.5338;-2.2005;0.9745;-0.0826;-0.3373;0.0;-29.1;20.76;15.0;320.81;4.09;97.45;0.0;61.505;39.46881;-0.341259;63.6;NaN;;28.28;;0 / 33;24767;2021-10-20 19:25:33:257
2.64;-8.365;0.414;-9.347;-2.9401;0.4549;0.7434;0.2143;-1.1555;1.1939;-0.4619;-0.7366;0.0;-29.1;20.76;15.0;320.81;4.09;97.45;0.0;56.401;39.46881;-0.341259;63.6;NaN;;28.28;;0 / 33;24816;2021-10-20 19:25:33:306
4.7171;-6.41;-2.9681;-7.4029;-5.4492;-3.4189;-0.8667;-3.641;1.1547;0.2254;0.2991;0.0454;0.0;-29.46;20.76;14.29;336.5;17.44;87.21;0.0;56.401;39.46881;-0.341259;63.6;NaN;;28.28;;0 / 33;24867;2021-10-20 19:25:33:357
4.7171;-6.41;-2.9681;-7.4029;-5.4492;-3.4189;-0.8667;-3.641;1.1547;0.2254;0.2991;0.0454;0.0;-29.46;20.76;14.29;336.5;17.44;87.21;0.0;56.401;39.46881;-0.341259;63.6;NaN;;28.28;;0 / 33;24917;2021-10-20 19:25:33:407
2.2901;-4.155;-0.957;-8.4228;-4.64;-1.9345;0.7809;-5.1014;-0.0885;0.1008;-0.1209;-0.905;0.0;-30.3;19.99;14.16;318.42;33.75;114.79;0.0;56.401;39.46881;-0.341259;63.6;NaN;;28.28;;0 / 33;24967;2021-10-20 19:25:33:457
4.164;-8.2721;0.0281;-8.7628;-4.4053;0.0287;-0.7588;-0.8432;-1.3058;0.1008;-0.1209;-0.905;0.0;-30.54;18.9;15.66;332.79;26.69;89.81;0.0;56.401;39.46881;-0.341259;63.6;NaN;;28.28;;0 / 33;25017;2021-10-20 19:25:33:507
1.8071;-6.8291;-2.774;-8.8298;-2.3272;-3.5769;-0.7588;-0.8432;-1.3058;-0.3109;0.2751;-0.4055;0.0;-30.54;18.9;15.66;332.79;26.69;89.81;0.0;56.401;39.46881;-0.341259;63.6;NaN;;28.28;;0 / 33;25066;2021-10-20 19:25:33:556
7.329;-13.784;-4.861;-8.2696;-4.3958;-2.9113;0.9863;-1.7482;1.0741;-0.5767;0.3251;0.1695;0.0;-29.4;17.76;18.84;307.88;13.73;112.05;0.0;53.711;39.46881;-0.341259;63.6;NaN;;28.28;;0 / 33;25117;2021-10-20 19:25:33:607
4.0181;-19.8;-6.228;-9.1842;-1.8579;-2.8874;-3.8711;7.2918;4.02;-0.5767;0.3251;0.1695;0.0;-27.84;16.5;21.6;308.33;26.63;109.39;0.0;53.711;39.46881;-0.341259;63.6;NaN;;28.28;;0 / 33;25166;2021-10-20 19:25:33:656
4.0181;-19.8;-6.228;-9.1842;-1.8579;-2.8874;2.3206;9.785;3.018;-0.6655;-0.066;0.1012;0.0;-27.84;16.5;21.6;308.33;26.63;109.39;0.0;53.711;39.46881;-0.341259;63.6;NaN;;28.28;;0 / 33;25217;2021-10-20 19:25:33:707
3.4151;-11.295;-4.016;-8.8921;-2.6815;-3.1508;-0.2432;-1.7146;0.8892;-0.3014;-0.5296;0.2449;0.0;-25.8;13.69;25.69;298.19;15.87;109.51;0.0;53.711;39.46881;-0.341259;63.6;NaN;;28.28;;0 / 33;25266;2021-10-20 19:25:33:756
1.34;-4.2289;-1.8109;-8.6622;-2.739;-3.6871;-0.2432;-1.7146;0.8892;-0.3014;-0.5296;0.2449;0.0;-25.8;13.69;25.69;298.19;15.87;109.51;0.0;53.711;39.46881;-0.341259;63.6;NaN;;28.28;;0 / 33;25317;2021-10-20 19:25:33:807
-1.373;-3.894;-0.258;-9.2368;3.2417;-0.5842;2.8384;-4.1405;-1.8304;0.0227;-0.8623;0.4822;0.0;-24.06;10.86;28.8;290.59;16.22;113.06;0.0;53.711;39.46881;-0.341259;63.6;NaN;;28.28;;0 / 33;25366;2021-10-20 19:25:33:856
1.017;-3.537;-1.292;-8.9016;-2.5426;-3.2322;3.0278;-5.0685;-2.289;0.0227;-0.8623;0.4822;0.0;-23.64;11.16;28.99;275.75;-19.3;93.62;0.0;61.843;39.46881;-0.341259;63.6;NaN;;28.28;;0 / 33;25416;2021-10-20 19:25:33:906
1.127;-8.4799;-1.113;-9.6438;-1.2737;-1.2546;0.8825;-3.0406;-1.897;0.3041;-0.9485;0.5259;0.0;-23.64;11.16;28.99;275.75;-19.3;93.62;0.0;61.843;39.46881;-0.341259;63.6;NaN;;28.28;;0 / 33;25466;2021-10-20 19:25:33:956
1.127;-8.4799;-1.113;-9.6438;-1.2737;-1.2546;0.8825;-3.0406;-1.897;0.3041;-0.9485;0.5259;0.0;-23.81;14.04;27.9;275.75;-19.3;93.62;0.0;61.843;39.46881;-0.341259;63.6;NaN;;28.28;;0 / 33;25517;2021-10-20 19:25:34:007
5.024;-11.412;-4.2079;-8.509;-3.7397;-3.1316;-3.1683;2.0434;1.9105;0.3041;-0.9485;0.5259;0.0;-24.24;17.64;24.9;304.64;22.41;110.21;0.0;61.843;39.46881;-0.341259;63.6;NaN;;28.28;;0 / 33;25567;2021-10-20 19:25:34:057
3.15;-15.0791;-4.054;-9.2847;-1.9393;-2.49;-1.1126;5.8178;1.5375;0.3041;-0.9485;0.5259;0.0;-24.24;17.64;24.9;304.64;22.41;110.21;0.0;61.843;39.46881;-0.341259;63.6;NaN;;28.28;;0 / 33;25616;2021-10-20 19:25:34:106
5.328;-8.559;9.0401;-6.201;-3.8595;6.5457;-3.254;-0.7139;-11.4782;0.3041;-0.9485;0.5259;0.0;-24.66;20.16;22.86;308.96;11.41;105.01;0.0;61.843;39.46881;-0.341259;63.6;NaN;;28.28;;0 / 33;25666;2021-10-20 19:25:34:156
2.489;-14.27;-7.2469;-8.6431;-1.5036;-4.391;-0.2757;4.9034;5.3069;0.3041;-0.9485;0.5259;0.0;-24.66;20.16;22.86;308.96;11.41;105.01;0.0;61.843;39.46881;-0.341259;63.6;NaN;;28.28;;0 / 33;25717;2021-10-20 19:25:34:207
2.616;-11.7709;-2.29;-9.4044;-2.0877;-1.8292;-0.2757;4.9034;5.3069;1.2562;-0.3183;-0.2966;0.0;-25.2;21.36;22.5;308.96;11.41;105.01;0.0;58.248;39.46881;-0.341259;63.6;NaN;;28.28;;0 / 33;25766;2021-10-20 19:25:34:256
2.616;-8.049;0.0161;-9.4044;-2.0877;-1.8292;0.1806;1.2624;2.1214;1.2562;-0.3183;-0.2966;0.0;-25.8;22.2;21.06;315.55;12.29;101.01;0.0;58.248;39.46881;-0.341259;63.6;NaN;;28.28;;0 / 33;25817;2021-10-20 19:25:34:307
2.4461;-8.049;0.0161;-9.3853;-2.8491;0.0144;-0.0553;-3.2287;-0.1623;1.5722;-0.4047;-0.3795;0.0;-25.8;22.2;21.06;315.55;12.29;101.01;0.0;58.248;39.46881;-0.341259;63.6;NaN;;28.28;;0 / 33;25867;2021-10-20 19:25:34:357
4.3301;-5.9569;-2.4791;-7.5226;-5.4588;-3.1316;-0.0553;-3.2287;-0.1623;1.5722;-0.4047;-0.3795;0.0;-25.8;22.5;20.34;325.98;16.89;89.91;0.0;58.248;39.46881;-0.341259;63.6;NaN;;28.28;;0 / 33;25916;2021-10-20 19:25:34:406
3.219;-6.156;0.4211;-8.6718;-4.5394;0.5746;-2.0386;-2.4516;1.3171;1.5722;-0.4047;-0.3795;0.0;-25.86;22.69;20.89;325.98;16.89;89.91;0.0;58.248;39.46881;-0.341259;63.6;NaN;;28.28;;0 / 33;25967;2021-10-20 19:25:34:457
0.83;-7.08;-2.843;-9.0549;-1.0487;-3.6296;1.3884;-0.4336;3.5537;0.0448;-0.3917;-0.9232;0.0;-25.86;22.69;20.89;325.98;16.89;89.91;0.0;58.248;39.46881;-0.341259;63.6;NaN;;28.28;;0 / 33;26016;2021-10-20 19:25:34:506
3.69;-6.783;-3.3289;-7.92;-4.2952;-3.8786;-2.2391;-4.582;-3.1377;0.2001;-0.3501;-0.6351;0.0;-25.26;21.79;23.7;306.54;6.14;111.84;0.0;54.699;39.46881;-0.341259;63.6;NaN;;28.28;;0 / 33;26066;2021-10-20 19:25:34:556
6.671;-12.9011;-3.252;-7.92;-4.2952;-3.8786;-2.2391;-4.582;-3.1377;0.2001;-0.3501;-0.6351;0.0;-25.26;21.79;23.7;306.54;6.14;111.84;0.0;54.699;39.46881;-0.341259;63.6;NaN;;28.28;;0 / 33;26117;2021-10-20 19:25:34:607
6.671;-12.9011;-3.252;-8.5042;-4.391;-2.1356;-2.4376;1.9638;0.0867;-0.1424;-0.367;-0.3865;0.0;-23.64;19.69;28.2;301.67;25.97;116.09;0.0;54.699;39.46881;-0.341259;63.6;NaN;;28.28;;0 / 33;26167;2021-10-20 19:25:34:657
1.23;-17.38;-4.7651;-9.4379;-0.6656;-2.5809;2.7214;8.566;3.0471;-0.1424;-0.367;-0.3865;0.0;-20.64;16.5;33.54;294.82;3.89;105.29;0.0;54.699;39.46881;-0.341259;63.6;NaN;;28.28;;0 / 33;26217;2021-10-20 19:25:34:707
1.6511;-11.822;-3.805;-9.256;-1.2929;-2.9784;2.7214;8.566;3.0471;-0.389;-0.1435;0.5188;0.0;-20.64;16.5;33.54;294.82;3.89;105.29;0.0;54.699;39.46881;-0.341259;63.6;NaN;;28.28;;0 / 33;26266;2021-10-20 19:25:34:756
3.3821;-6.8959;-2.096;-9.4332;-2.0303;-1.7573;1.4747;2.1744;1.8617;-0.2248;-0.5239;0.685;0.0;-16.2;12.6;38.94;294.82;3.89;105.29;0.0;54.699;39.46881;-0.341259;63.6;NaN;;28.28;;0 / 33;26316;2021-10-20 19:25:34:806
-1.2041;-4.509;0.4781;-9.4332;-2.0303;-1.7573;3.5227;-4.5644;-2.0825;-0.2248;-0.5239;0.685;0.0;-12.71;9.9;42.0;283.94;11.95;100.55;0.0;59.339;39.46881;-0.341259;63.6;NaN;;28.28;;0 / 33;26367;2021-10-20 19:25:34:857
1.302;-4.6811;-2.2661;-9.6678;-1.3072;-1.0104;3.5227;-4.5644;-2.0825;0.1467;-0.9828;0.3902;0.0;-12.71;9.9;42.0;283.94;11.95;100.55;0.0;59.339;39.46881;-0.341259;63.6;NaN;;28.28;;0 / 33;26417;2021-10-20 19:25:34:907
1.302;-4.6811;-2.2661;-8.7963;-1.1013;-4.1994;1.1898;-4.5567;0.0618;0.422;-1.0549;0.4595;0.0;-10.2;10.5;43.39;284.87;7.66;95.97;0.0;59.339;39.46881;-0.341259;63.6;NaN;;28.28;;0 / 33;26467;2021-10-20 19:25:34:957
1.017;-7.884;-3.6709;-8.8298;-2.217;-3.644;-0.1248;0.4908;1.4231;0.422;-1.0549;0.4595;0.0;-10.2;10.5;43.39;284.87;7.66;95.97;0.0;59.339;39.46881;-0.341259;63.6;NaN;;28.28;;0 / 33;26516;2021-10-20 19:25:35:006
4.2581;-11.4701;-7.4629;-8.8298;-2.217;-3.644;-0.1248;0.4908;1.4231;-0.3646;-1.0966;-0.0998;0.0;-9.0;15.0;43.8;286.06;13.07;112.43;0.0;59.339;39.46881;-0.341259;63.6;NaN;;28.28;;0 / 33;26566;2021-10-20 19:25:35:056
2.927;-7.702;-6.73;-7.1012;-2.6911;-6.2058;-0.8452;0.7497;6.6829;-0.9948;-1.0838;-0.6227;0.0;-8.7;19.39;43.69;287.33;15.93;131.15;0.0;59.339;39.46881;-0.341259;63.6;NaN;;28.28;;0 / 33;26617;2021-10-20 19:25:35:107
0.701;-13.2409;11.0651;-7.5226;-0.3926;6.2824;-0.8452;0.7497;6.6829;-0.9948;-1.0838;-0.6227;0.0;-8.7;19.39;43.69;287.33;15.93;131.15;0.0;59.339;39.46881;-0.341259;63.6;NaN;;28.28;;0 / 33;26667;2021-10-20 19:25:35:157
10.424;-19.752;-1.467;-8.6574;-4.5681;-0.6369;1.5031;4.371;-14.6232;0.6545;-0.7245;-0.3257;0.0;-7.5;20.29;45.54;305.35;2.29;50.13;0.0;59.339;39.46881;-0.341259;63.6;NaN;;28.28;;0 / 33;26716;2021-10-20 19:25:35:206
0.962;-11.5819;-0.1459;-8.6574;-4.5681;-0.6369;-8.0994;10.7204;-1.5862;1.7292;-0.4302;-0.4426;0.0;-7.2;20.7;47.76;292.66;27.75;94.21;0.0;54.657;39.46881;-0.341259;63.6;NaN;;28.28;;0 / 33;26767;2021-10-20 19:25:35:257
0.962;-11.5819;-0.1459;-9.7252;-1.063;0.7087;1.5272;2.3341;-2.0038;1.7292;-0.4302;-0.4426;0.0;-7.2;20.7;47.76;292.66;27.75;94.21;0.0;54.657;39.46881;-0.341259;63.6;NaN;;28.28;;0 / 33;26817;2021-10-20 19:25:35:307
3.035;-10.5221;-2.072;-9.1842;-2.8826;-1.8771;-0.4299;1.1819;0.5414;0.7283;-0.5259;-0.3708;0.0;-5.94;24.19;47.89;297.68;6.22;85.83;0.0;54.657;39.46881;-0.341259;63.6;NaN;;28.28;;0 / 33;26866;2021-10-20 19:25:35:356
2.537;-6.47;-1.3849;-8.6574;-4.0031;-2.2793;-0.0091;-2.9025;-0.0245;0.7283;-0.5259;-0.3708;0.0;-5.94;24.19;47.89;297.68;6.22;85.83;0.0;54.657;39.46881;-0.341259;63.6;NaN;;28.28;;0 / 33;26916;2021-10-20 19:25:35:406
3.3581;-7.5469;-0.933;-8.6574;-4.0031;-2.2793;-0.0091;-2.9025;-0.0245;0.2712;-0.4419;0.0551;0.0;-3.24;29.04;47.46;297.68;6.22;85.83;0.0;54.657;39.46881;-0.341259;63.6;NaN;;28.28;;0 / 33;26967;2021-10-20 19:25:35:457
3.0851;-8.439;-2.1199;-8.9304;-4.0558;-0.0144;-0.6625;-1.9432;-1.3941;0.3303;-1.018;-0.7076;0.0;-0.84;33.3;46.26;303.48;24.43;90.09;0.0;54.657;39.46881;-0.341259;63.6;NaN;;28.28;;0 / 33;27017;2021-10-20 19:25:35:507
4.265;-12.2291;-1.788;-9.0884;-2.6863;-2.5139;-0.1921;1.452;1.547;0.3303;-1.018;-0.7076;0.0;-0.84;33.3;46.26;303.48;24.43;90.09;0.0;59.083;39.46881;-0.341259;63.6;NaN;;28.28;;0 / 33;27067;2021-10-20 19:25:35:557
4.265;-12.2291;-1.788;-9.0309;-3.5003;-1.5467;-1.5546;2.8191;0.6397;0.3211;-0.98;-0.3854;0.0;2.59;36.24;43.74;306.35;15.9;105.46;0.0;59.083;39.46881;-0.341259;63.6;NaN;;28.28;;0 / 33;27117;2021-10-20 19:25:35:607
7.8941;-14.924;-1.68;-8.7676;-3.9217;-1.9776;-1.5546;2.8191;0.6397;0.3589;-1.2115;-0.4469;0.0;7.5;37.99;41.59;306.35;15.9;105.46;0.0;59.083;39.46881;-0.341259;63.6;NaN;;28.28;;0 / 33;27167;2021-10-20 19:25:35:657
2.757;-7.118;0.215;-8.7676;-3.9217;-1.9776;-1.1703;0.8252;0.8304;0.3589;-1.2115;-0.4469;0.0;7.5;37.99;41.59;306.35;15.9;105.46;0.0;59.083;39.46881;-0.341259;63.6;NaN;;28.28;;0 / 33;27216;2021-10-20 19:25:35:706
5.4431;-12.743;-0.6311;-9.5337;-2.2218;-0.6129;1.2851;0.0312;-0.7685;0.6057;-1.21;-0.3608;0.0;14.04;37.09;39.06;310.35;13.09;93.68;0.0;59.083;39.46881;-0.341259;63.6;NaN;;28.28;;0 / 33;27267;2021-10-20 19:25:35:757
1.718;-11.0291;3.209;-8.8969;-3.2274;2.5714;-1.2598;3.9678;-4.9373;0.6057;-1.21;-0.3608;0.0;14.04;37.09;39.06;310.35;13.09;93.68;0.0;59.083;39.46881;-0.341259;63.6;NaN;;28.28;;0 / 33;27317;2021-10-20 19:25:35:807
5.732;-8.815;-2.486;-8.2361;-4.9416;-1.9824;-1.5746;-0.913;1.3236;1.1942;-0.668;0.0732;0.0;18.54;33.3;34.69;306.09;19.21;73.88;0.0;59.083;39.46881;-0.341259;63.6;NaN;;28.28;;0 / 33;27366;2021-10-20 19:25:35:856
5.732;-8.815;-2.486;-9.2033;-3.1651;1.2258;-1.5746;-0.913;1.3236;0.8734;-1.0849;-0.2912;0.0;19.44;29.94;28.69;306.09;19.21;73.88;0.0;58.098;39.46881;-0.341259;63.6;NaN;;28.28;;0 / 33;27416;2021-10-20 19:25:35:906
1.8881;-7.267;1.9481;-8.7532;-4.4245;0.0766;1.5985;-1.9048;-2.2423;0.8734;-1.0849;-0.2912;0.0;19.44;29.94;28.69;306.09;19.21;73.88;0.0;58.098;39.46881;-0.341259;63.6;NaN;;28.28;;0 / 33;27466;2021-10-20 19:25:35:956
3.0131;-6.7451;0.009;-8.7532;-4.4245;0.0766;0.5875;-2.3785;-0.2078;0.544;-1.2152;-0.3096;0.0;17.1;27.66;23.64;305.8;26.81;89.5;0.0;58.098;39.46881;-0.341259;63.6;NaN;;28.28;;0 / 33;27517;2021-10-20 19:25:36:007
-0.809;-6.802;-0.753;-9.7923;0.3304;0.498;0.5875;-2.3785;-0.2078;0.649;-0.4921;0.6771;0.0;12.79;26.76;20.1;323.0;-1.93;87.09;0.0;58.098;39.46881;-0.341259;63.6;NaN;;28.28;;0 / 33;27566;2021-10-20 19:25:36:056
-0.222;-7.367;0.452;-9.6917;-1.1109;-0.9864;3.4243;-2.8238;1.5161;0.649;-0.4921;0.6771;0.0;12.79;26.76;20.1;323.0;-1.93;87.09;0.0;58.098;39.46881;-0.341259;63.6;NaN;;28.28;;0 / 33;27616;2021-10-20 19:25:36:106
2.412;-7.384;-6.939;-7.6088;0.6369;-6.1531;4.3628;-0.9475;1.5944;-0.253;-0.0257;1.3507;0.0;10.26;28.26;17.04;329.03;6.51;95.81;0.0;58.098;39.46881;-0.341259;63.6;NaN;;28.28;;0 / 33;27666;2021-10-20 19:25:36:156
2.412;-7.384;-6.939;-8.2648;-3.9169;-3.5482;4.3628;-0.9475;1.5944;-0.253;-0.0257;1.3507;0.0;10.26;28.26;17.04;329.03;6.51;95.81;0.0;60.427;39.46881;-0.341259;63.6;NaN;;28.28;;0 / 33;27717;2021-10-20 19:25:36:207
6.201;-12.693;-10.242;-9.754;-0.8428;-0.5746;-4.3534;4.1362;4.7499;-1.0601;-2.4017;-0.2898;0.0;9.9;30.3;14.89;335.38;23.53;113.23;0.0;60.427;39.46881;-0.341259;63.6;NaN;;28.28;;0 / 33;27767;2021-10-20 19:25:36:257
-1.704;-14.2301;15.2711;-9.754;-0.8428;-0.5746;4.0882;4.9565;-17.4301;-0.1907;-1.3575;-0.2571;0.0;10.14;31.09;15.36;334.34;4.93;93.37;0.0;60.427;39.46881;-0.341259;63.6;NaN;;28.28;;0 / 33;27816;2021-10-20 19:25:36:306
8.978;-18.428;-0.1459;-8.6766;-4.0893;2.0351;-6.6169;9.0877;-1.7647;-0.1907;-1.3575;-0.2571;0.0;10.14;31.09;15.36;334.34;4.93;93.37;0.0;60.427;39.46881;-0.341259;63.6;NaN;;28.28;;0 / 33;27866;2021-10-20 19:25:36:356
4.9301;-11.826;0.1361;-8.8155;-4.3048;0.1293;-6.6169;9.0877;-1.7647;0.7058;0.6051;0.0228;0.0;9.79;30.96;18.24;322.52;24.65;76.8;0.0;60.427;39.46881;-0.341259;63.6;NaN;;28.28;;0 / 33;27917;2021-10-20 19:25:36:407
1.7561;-10.7419;-2.747;-9.5768;-1.2306;-1.7047;-0.8963;0.7566;-1.5793;0.4896;0.4527;-0.342;0.0;9.54;31.8;18.24;322.52;24.65;76.8;0.0;60.427;39.46881;-0.341259;63.6;NaN;;28.28;;0 / 33;27967;2021-10-20 19:25:36:457
1.7561;-10.7419;-2.747;-9.2847;-2.1979;-2.2649;0.7203;-0.134;1.3196;0.4896;0.4527;-0.342;0.0;9.54;31.8;18.24;322.52;24.65;76.8;0.0;60.753;39.46881;-0.341259;63.6;NaN;;28.28;;0 / 33;28016;2021-10-20 19:25:36:506
