sep=;
ACCELEROMETER X (m/s²);ACCELEROMETER Y (m/s²);ACCELEROMETER Z (m/s²);GRAVITY X (m/s²);GRAVITY Y (m/s²);GRAVITY Z (m/s²);LINEAR ACCELERATION X (m/s²);LINEAR ACCELERATION Y (m/s²);LINEAR ACCELERATION Z (m/s²);GYROSCOPE X (rad/s);GYROSCOPE Y (rad/s);GYROSCOPE Z (rad/s);LIGHT (lux);MAGNETIC FIELD X (μT);MAGNETIC FIELD Y (μT);MAGNETIC FIELD Z (μT);ORIENTATION Z (azimuth °);ORIENTATION X (pitch °);ORIENTATION Y (roll °);PROXIMITY (m);SOUND LEVEL (dB);LOCATION Latitude : ;LOCATION Longitude : ;LOCATION Altitude ( m);LOCATION Altitude-google ( m);LOCATION Speed ( Kmh);LOCATION Accuracy ( m);LOCATION ORIENTATION (°);Satellites in range;Time since start in ms ;YYYY-MO-DD HH-MI-SS_SSS
1.0961;0.897;5.6561;1.4892;-1.834;9.5193;-0.2131;1.8508;3.7239;-0.1327;0.1008;-0.3476;99.0;-25.14;-18.24;-24.66;137.86;10.78;-8.89;5.0;45.245;39.468773;-0.342222;25.7;NaN;0.0;4.1;0.0;5 / 33;15;2021-10-20 19:29:37:597
12.2;17.0711;0.356;7.9775;-5.6982;0.1676;-0.2131;1.8508;3.7239;-0.1327;0.1008;-0.3476;99.0;-25.14;-18.24;-24.66;137.86;10.78;-8.89;5.0;47.129;39.468773;-0.342222;25.7;NaN;0.0;4.1;0.0;5 / 33;64;2021-10-20 19:29:37:646
12.2;17.0711;0.356;7.9775;-5.6982;0.1676;0.9182;13.832;8.505;0.6277;-1.9614;-0.1726;99.0;-26.34;-15.24;-25.44;221.52;35.53;-88.8;5.0;47.129;39.468773;-0.342222;25.7;NaN;0.0;4.1;0.0;5 / 33;114;2021-10-20 19:29:37:696
-1.6969;-5.368;2.52;-8.5377;2.6863;4.0079;0.9182;13.832;8.505;0.6277;-1.9614;-0.1726;99.0;-26.34;-15.24;-25.44;221.52;35.53;-88.8;5.0;47.129;39.468773;-0.342222;25.7;NaN;0.0;4.1;0.0;5 / 33;165;2021-10-20 19:29:37:747
4.5401;-3.5209;1.479;-5.8179;-7.5082;2.4373;3.5888;12.2891;15.859;-5.0577;0.2124;-1.4376;103.0;-30.41;-12.3;-18.3;73.89;49.97;67.27;5.0;47.129;39.468773;-0.342222;25.7;NaN;0.0;4.1;0.0;5 / 33;214;2021-10-20 19:29:37:796
6.8021;-3.6521;5.052;-3.8834;-7.2353;5.363;1.9079;3.5918;-1.6807;-5.0577;0.2124;-1.4376;103.0;-30.41;-12.3;-18.3;73.89;49.97;67.27;5.0;47.129;39.468773;-0.342222;25.7;NaN;0.0;4.1;0.0;5 / 33;264;2021-10-20 19:29:37:846
6.9;-8.8249;-3.02;-7.4603;-5.8323;-2.5474;1.9079;3.5918;-1.6807;-0.3352;-1.1923;0.6155;103.0;-37.09;-6.6;-2.34;73.89;49.97;67.27;5.0;47.129;39.468773;-0.342222;25.7;NaN;0.0;4.1;0.0;5 / 33;315;2021-10-20 19:29:37:897
6.9;-8.8249;-3.02;-7.4603;-5.8323;-2.5474;-3.3842;6.9534;11.9773;-0.1276;-2.1042;1.2706;103.0;-36.19;4.31;5.64;322.21;36.5;108.85;0.0;54.309;39.468773;-0.342222;25.7;NaN;0.0;4.1;0.0;5 / 33;364;2021-10-20 19:29:37:946
33.822;3.59;-14.105;0.9529;-9.007;-3.7541;-28.7866;-6.1829;22.1019;-0.1276;-2.1042;1.2706;103.0;-36.19;4.31;5.64;322.21;36.5;108.85;0.0;54.309;39.468773;-0.342222;25.7;NaN;0.0;4.1;0.0;5 / 33;415;2021-10-20 19:29:37:997
14.2871;1.8551;11.5871;0.9816;-7.58;6.1483;-7.4173;-4.3592;-5.0297;0.7274;-4.4946;0.5316;103.0;-31.69;15.19;12.9;245.15;66.73;-165.76;0.0;54.309;39.468773;-0.342222;25.7;NaN;0.0;4.1;0.0;5 / 33;465;2021-10-20 19:29:38:047
14.682;8.193;-25.2641;2.648;-4.7453;-8.1642;-6.8605;-9.2816;31.0827;7.0474;-2.9594;1.3248;103.0;-28.14;20.7;15.3;288.34;28.94;-162.03;0.0;54.309;39.468773;-0.342222;25.7;NaN;0.0;4.1;0.0;5 / 33;514;2021-10-20 19:29:38:096
9.251;-5.277;-5.055;-4.3862;-7.695;-4.2042;-6.8605;-9.2816;31.0827;7.0474;-2.9594;1.3248;49.0;-28.14;20.7;15.3;288.34;28.94;-162.03;0.0;54.309;39.468773;-0.342222;25.7;NaN;0.0;4.1;0.0;5 / 33;564;2021-10-20 19:29:38:146
13.143;-2.846;13.0091;-1.4844;-6.8857;6.8235;-4.4;0.538;6.5133;6.0313;-2.2085;0.2959;49.0;-25.31;20.89;19.14;288.34;28.94;-162.03;0.0;54.309;39.468773;-0.342222;25.7;NaN;0.0;4.1;0.0;5 / 33;615;2021-10-20 19:29:38:197
13.143;-2.846;13.0091;-1.4844;-6.8857;6.8235;3.2563;5.5483;0.945;6.0313;-2.2085;0.2959;49.0;-25.31;20.89;19.14;288.34;28.94;-162.03;0.0;54.309;39.468773;-0.342222;25.7;NaN;0.0;4.1;0.0;5 / 33;665;2021-10-20 19:29:38:247
1.3211;-8.286;3.506;-8.9399;-1.4126;3.7781;3.2563;5.5483;0.945;0.6819;-0.6715;1.9257;49.0;-21.54;17.16;25.44;26.44;44.6;12.27;0.0;61.955;39.468773;-0.342222;25.7;NaN;0.0;4.1;0.0;5 / 33;714;2021-10-20 19:29:38:296
-8.8579;-11.506;-7.575;-6.8857;5.3056;-4.5394;10.8454;10.3935;8.9332;-2.965;1.6602;3.9229;49.0;-18.11;17.4;28.69;293.45;-32.75;123.39;0.0;61.955;39.468773;-0.342222;25.7;NaN;0.0;4.1;0.0;5 / 33;765;2021-10-20 19:29:38:347
8.439;-1.551;-3.185;-1.652;-9.0453;-3.4046;0.0884;-2.439;5.9602;-2.965;1.6602;3.9229;49.0;-18.11;17.4;28.69;293.45;-32.75;123.39;0.0;61.955;39.468773;-0.342222;25.7;NaN;0.0;4.1;0.0;5 / 33;815;2021-10-20 19:29:38:397
17.7911;-13.3609;-3.173;-5.8275;-7.7668;-1.3791;0.0884;-2.439;5.9602;-1.6853;-1.9679;1.624;0.0;-13.5;23.1;27.66;250.63;67.3;154.12;0.0;61.955;39.468773;-0.342222;25.7;NaN;0.0;4.1;0.0;5 / 33;864;2021-10-20 19:29:38:446
-4.567;-2.309;-7.769;-2.4277;4.8123;-8.193;-9.2204;8.7814;4.5418;1.3655;-1.4766;-0.5714;0.0;-11.94;26.89;24.66;308.01;52.37;103.31;0.0;61.955;39.468773;-0.342222;25.7;NaN;0.0;4.1;0.0;5 / 33;914;2021-10-20 19:29:38:496
-4.567;-2.309;-7.769;-2.4277;4.8123;-8.193;12.8941;-2.2491;3.9471;1.3655;-1.4766;-0.5714;0.0;-11.94;26.89;24.66;308.01;52.37;103.31;0.0;61.955;39.468765;-0.342217;25.7;NaN;0.0;4.1;0.0;5 / 33;965;2021-10-20 19:29:38:547
12.174;-15.276;2.6231;-7.604;-6.0573;1.3024;-0.7497;3.5478;3.4569;0.4447;-0.5712;1.2463;0.0;-11.94;28.26;23.76;325.8;38.14;80.28;0.0;65.803;39.468765;-0.342217;25.7;NaN;0.0;4.1;0.0;5 / 33;1014;2021-10-20 19:29:38:596
11.6471;1.5221;0.993;1.2593;-9.6917;0.814;-0.7497;3.5478;3.4569;0.4447;-0.5712;1.2463;0.0;-11.94;28.26;23.76;325.8;38.14;80.28;0.0;65.803;39.468765;-0.342217;25.7;NaN;0.0;4.1;0.0;5 / 33;1065;2021-10-20 19:29:38:647
3.9851;1.7441;1.1171;3.8116;-8.7005;2.4421;4.9106;-8.0563;-0.8935;0.4029;-0.6396;0.9969;0.0;-9.49;28.86;24.9;68.15;81.2;-57.12;0.0;65.803;39.468765;-0.342217;25.7;NaN;0.0;4.1;0.0;5 / 33;1114;2021-10-20 19:29:38:696
14.297;-14.414;-0.945;-6.9575;-6.8953;-0.4549;-2.8714;10.2847;3.6918;1.2972;-1.2308;-0.569;0.0;-5.1;31.09;23.46;45.63;62.51;-57.35;0.0;65.803;39.468765;-0.342217;25.7;NaN;0.0;4.1;0.0;5 / 33;1165;2021-10-20 19:29:38:747
14.9051;-1.194;-0.201;-0.7757;-9.7779;-0.1245;-2.8714;10.2847;3.6918;1.2972;-1.2308;-0.569;0.0;-5.1;31.09;23.46;45.63;62.51;-57.35;0.0;65.803;39.468765;-0.342217;25.7;NaN;0.0;4.1;0.0;5 / 33;1215;2021-10-20 19:29:38:797
14.9051;-1.194;-0.201;-0.7757;-9.7779;-0.1245;-6.6019;-4.0394;0.2724;0.9588;-1.5381;-0.1402;0.0;-1.31;34.56;20.34;45.63;62.51;-57.35;0.0;65.803;39.468765;-0.342217;25.7;NaN;0.0;4.1;0.0;5 / 33;1264;2021-10-20 19:29:38:846
8.7581;-11.477;0.7151;-7.7859;-5.9472;0.4788;7.0432;9.2007;-1.5135;0.3768;-0.9296;1.2845;0.0;-2.1;34.99;19.09;327.65;37.32;86.48;0.0;65.239;39.468765;-0.342217;25.7;NaN;0.0;4.1;0.0;5 / 33;1315;2021-10-20 19:29:38:897
18.7751;-20.8579;-3.37;-7.2401;-6.517;-1.1684;7.0432;9.2007;-1.5135;0.3768;-0.9296;1.2845;0.0;-2.1;34.99;19.09;327.65;37.32;86.48;0.0;65.239;39.468765;-0.342217;25.7;NaN;0.0;4.1;0.0;5 / 33;1364;2021-10-20 19:29:38:946
13.452;-18.483;3.185;-7.8578;-5.7126;1.3503;-6.9538;15.2678;4.0037;0.1782;-0.1984;1.6917;0.0;-0.84;33.71;20.89;325.87;35.62;80.25;0.0;65.239;39.468765;-0.342217;25.7;NaN;0.0;4.1;0.0;5 / 33;1415;2021-10-20 19:29:38:997
4.7291;-7.0609;2.3171;-7.8626;-5.2672;2.5809;-5.811;4.5519;1.5612;0.2349;-0.1213;0.9988;0.0;-0.84;33.71;20.89;325.87;35.62;80.25;0.0;65.239;39.468765;-0.342217;25.7;NaN;0.0;4.1;0.0;5 / 33;1464;2021-10-20 19:29:39:046
-2.424;4.7561;-2.714;7.7955;3.9552;-4.4436;7.8343;-10.9347;3.7609;0.2349;-0.1213;0.9988;0.0;2.21;30.06;25.99;318.52;32.48;71.83;0.0;65.239;39.468765;-0.342217;25.7;NaN;0.0;4.1;0.0;5 / 33;1514;2021-10-20 19:29:39:096
1.713;1.3691;4.0811;2.8922;-3.6152;8.6479;7.8343;-10.9347;3.7609;0.256;0.0419;-4.0E-4;0.0;2.59;26.29;29.89;43.8;-23.79;-119.68;0.0;65.239;39.468765;-0.342217;25.7;NaN;0.0;4.1;0.0;5 / 33;1565;2021-10-20 19:29:39:147
1.713;1.3691;4.0811;2.8922;-3.6152;8.6479;4.7112;-8.7627;-3.5579;0.256;0.0419;-4.0E-4;0.0;2.59;26.29;29.89;43.8;-23.79;-119.68;0.0;65.239;39.468765;-0.342217;25.7;NaN;0.0;4.1;0.0;5 / 33;1614;2021-10-20 19:29:39:196
7.446;-4.54;-11.9891;-3.0023;-4.9225;-7.9344;1.5505;0.6591;11.3746;-1.8074;-3.7878;-8.8197;0.0;4.91;26.89;28.2;330.69;30.12;159.27;0.0;64.2;39.468765;-0.342217;25.7;NaN;0.0;4.1;0.0;5 / 33;1665;2021-10-20 19:29:39:247
19.608;0.83;6.156;0.3879;-9.3518;2.9305;-12.0819;-7.0984;-5.6944;-0.7652;1.671;3.7795;0.0;3.66;27.06;27.84;359.52;72.46;-7.54;0.0;64.2;39.468765;-0.342217;25.7;NaN;0.0;4.1;0.0;5 / 33;1714;2021-10-20 19:29:39:296
13.2461;-24.132;0.236;-8.5952;-4.7166;0.0814;-12.0819;-7.0984;-5.6944;-0.7652;1.671;3.7795;0.0;3.66;27.06;27.84;359.52;72.46;-7.54;0.0;64.2;39.468765;-0.342217;25.7;NaN;0.0;4.1;0.0;5 / 33;1765;2021-10-20 19:29:39:347
4.215;-26.0111;-9.742;-9.0836;-1.47;-3.3998;7.1069;17.3982;3.8722;-0.0814;0.96;1.9994;0.0;0.19;30.3;24.6;359.52;72.46;-7.54;0.0;64.2;39.468765;-0.342217;25.7;NaN;0.0;4.1;0.0;5 / 33;1814;2021-10-20 19:29:39:396
17.607;7.032;-2.202;3.6152;-9.0453;-1.1253;6.6247;7.9035;-1.2802;-0.3183;0.2094;1.3263;0.0;0.19;30.3;24.6;359.52;72.46;-7.54;0.0;64.2;39.468765;-0.342217;25.7;NaN;0.0;4.1;0.0;5 / 33;1864;2021-10-20 19:29:39:446
17.607;7.032;-2.202;3.6152;-9.0453;-1.1253;6.6247;7.9035;-1.2802;-0.3183;0.2094;1.3263;0.0;2.34;33.41;20.29;65.39;67.29;-107.29;0.0;64.2;39.468765;-0.342217;25.7;NaN;0.0;4.1;0.0;5 / 33;1915;2021-10-20 19:29:39:497
3.5591;7.968;-5.6681;7.513;-3.3519;-5.3391;-13.7116;-17.7306;4.8282;0.6784;-2.8702;-2.7026;0.0;4.99;32.7;20.29;34.02;19.98;-125.4;0.0;65.652;39.468746;-0.342182;25.7;NaN;0.0;4.4;0.0;9 / 33;1965;2021-10-20 19:29:39:547
13.1;-5.263;23.282;-1.8962;-4.7166;8.3845;-5.0409;-0.3247;-22.792;0.6784;-2.8702;-2.7026;0.0;4.99;32.7;20.29;34.02;19.98;-125.4;0.0;65.652;39.468746;-0.342182;25.7;NaN;0.0;4.4;0.0;9 / 33;2014;2021-10-20 19:29:39:596
6.3911;-47.736;0.5861;-9.7205;-1.3024;0.1197;1.6689;42.2114;0.337;1.3588;-0.7077;-3.9898;0.0;0.49;32.46;20.1;353.28;28.75;12.74;0.0;65.652;39.468746;-0.342182;25.7;NaN;0.0;4.4;0.0;9 / 33;2065;2021-10-20 19:29:39:647
20.75;-12.2051;18.071;-3.9792;-6.7612;5.8897;1.6689;42.2114;0.337;-0.5275;1.1685;2.809;0.0;-1.61;33.24;19.99;345.2;43.57;34.04;0.0;65.652;39.468746;-0.342182;25.7;NaN;0.0;4.4;0.0;9 / 33;2115;2021-10-20 19:29:39:697
-3.286;6.7661;-7.003;-3.9792;-6.7612;5.8897;-13.7939;5.4151;-16.7254;-0.5275;1.1685;2.809;0.0;-1.61;33.24;19.99;345.2;43.57;34.04;0.0;65.652;39.468746;-0.342182;25.7;NaN;0.0;4.4;0.0;9 / 33;2165;2021-10-20 19:29:39:747
-3.286;6.7661;-7.003;6.4548;3.1364;-6.6846;8.9916;-14.5832;8.5198;-0.7278;1.602;2.2209;0.0;-0.66;29.4;24.36;25.65;-18.65;-136.0;0.0;65.652;39.468746;-0.342182;25.7;NaN;0.0;4.4;0.0;9 / 33;2215;2021-10-20 19:29:39:797
-11.0411;13.119;2.163;7.446;6.2632;1.221;5.1488;-11.2521;8.2119;7.2399;4.7659;4.6564;0.0;-0.66;29.4;24.36;25.65;-18.65;-136.0;0.0;68.262;39.468746;-0.342182;25.7;NaN;0.0;4.4;0.0;9 / 33;2265;2021-10-20 19:29:39:847
2.867;4.1861;-0.045;-8.0685;-4.5873;-3.1699;5.1488;-11.2521;8.2119;7.2399;4.7659;4.6564;0.0;2.21;25.8;27.84;25.65;-18.65;-136.0;0.0;68.262;39.468746;-0.342182;25.7;NaN;0.0;4.4;0.0;9 / 33;2315;2021-10-20 19:29:39:897
5.1191;-27.699;34.2791;-2.3176;9.3039;-2.0494;-9.5577;5.2563;11.1677;-5.5025;-6.7859;-3.9344;0.0;8.4;23.16;29.21;296.29;27.89;111.45;0.0;68.262;39.468746;-0.342182;25.7;NaN;0.0;4.4;0.0;9 / 33;2365;2021-10-20 19:29:39:947
5.364;-26.009;9.002;-2.3176;9.3039;-2.0494;22.1454;-2.5994;10.1435;-5.5025;-6.7859;-3.9344;0.0;8.4;23.16;29.21;296.29;27.89;111.45;0.0;68.262;39.468746;-0.342182;25.7;NaN;0.0;4.4;0.0;9 / 33;2414;2021-10-20 19:29:39:996
2.5751;-18.419;-1.823;-7.9631;-5.4444;-1.7621;-22.9246;23.2251;10.8955;-1.9559;0.9115;-0.6076;0.0;8.89;21.54;30.41;289.75;33.73;102.48;0.0;68.262;39.468746;-0.342182;25.7;NaN;0.0;4.4;0.0;9 / 33;2464;2021-10-20 19:29:40:046
2.5751;-18.419;-1.823;-9.2081;-2.8204;-1.8675;-8.4768;17.85;8.4709;-0.8701;-0.193;-0.8913;0.0;8.81;24.24;27.66;306.31;16.71;101.46;0.0;68.262;39.468746;-0.342182;25.7;NaN;0.0;4.4;0.0;9 / 33;2515;2021-10-20 19:29:40:097
-11.8361;-9.3281;-7.3961;-9.1219;-1.8244;-3.1077;-8.4768;17.85;8.4709;-0.8701;-0.193;-0.8913;0.0;8.81;24.24;27.66;306.31;16.71;101.46;0.0;68.262;39.468746;-0.342182;25.7;NaN;0.0;4.4;0.0;9 / 33;2565;2021-10-20 19:29:40:147
13.722;-9.888;-2.1919;4.458;-8.4851;-2.0734;-16.8483;0.0765;9.9402;-2.1029;-2.0312;-1.808;0.0;17.21;24.96;22.14;322.85;10.72;108.81;0.0;68.262;39.468746;-0.342182;25.7;NaN;0.0;4.4;0.0;9 / 33;2615;2021-10-20 19:29:40:197
0.1841;2.048;-1.323;-3.7445;6.8618;-5.928;3.6445;-11.1479;3.8051;-1.9624;-3.9203;-2.3965;0.0;17.21;24.96;22.14;322.85;10.72;108.81;0.0;68.089;39.468746;-0.342182;25.7;NaN;0.0;4.4;0.0;9 / 33;2665;2021-10-20 19:29:40:247
4.5;-17.672;5.933;-3.7445;6.8618;-5.928;3.6445;-11.1479;3.8051;-1.9624;-3.9203;-2.3965;0.0;23.81;21.19;21.9;13.01;-44.38;147.72;0.0;68.089;39.468746;-0.342182;25.7;NaN;0.0;4.4;0.0;9 / 33;2715;2021-10-20 19:29:40:297
-20.271;-25.4201;-13.088;-9.7683;-0.8619;-0.0479;-0.8611;8.6885;-7.467;0.4166;-0.8301;0.1921;0.0;21.24;17.59;27.0;300.86;5.04;90.28;0.0;68.089;39.468746;-0.342182;25.7;NaN;0.0;4.4;0.0;9 / 33;2765;2021-10-20 19:29:40:347
-20.271;-25.4201;-13.088;-7.7668;3.0071;-5.1763;22.9238;16.1241;11.4081;0.4166;-0.8301;0.1921;0.0;21.24;17.59;27.0;300.86;5.04;90.28;0.0;68.089;39.468746;-0.342182;25.7;NaN;0.0;4.4;0.0;9 / 33;2815;2021-10-20 19:29:40:397
18.344;-16.1209;-11.7671;-4.8937;-7.8482;-3.2561;-16.707;6.6793;9.6249;-0.8016;-0.5178;1.7058;0.0;13.44;13.91;32.64;317.7;-17.86;123.68;0.0;68.089;39.468746;-0.342182;25.7;NaN;0.0;4.4;0.0;9 / 33;2864;2021-10-20 19:29:40:446
-9.416;-4.023;7.8821;7.6184;5.5929;2.6288;-16.707;6.6793;9.6249;-0.737;0.8012;1.4563;0.0;13.14;9.9;34.39;100.39;-34.76;-70.96;0.0;68.089;39.468746;-0.342182;25.7;NaN;0.0;4.4;0.0;9 / 33;2915;2021-10-20 19:29:40:497
-2.3021;2.276;12.104;3.5769;3.4237;8.4659;9.8657;-21.6862;-6.8963;-0.737;0.8012;1.4563;0.0;13.14;9.9;34.39;100.39;-34.76;-70.96;0.0;70.01;39.468746;-0.342182;25.7;NaN;0.0;4.4;0.0;9 / 33;2965;2021-10-20 19:29:40:547
1.098;-8.0831;-7.6061;3.5769;3.4237;8.4659;2.372;-8.3651;1.2647;8.0603;0.3949;1.2574;0.0;18.0;9.3;32.89;218.95;-20.43;-22.9;0.0;70.01;39.468792;-0.342177;25.7;NaN;0.0;4.3;0.0;9 / 33;3015;2021-10-20 19:29:40:597
-0.933;-14.546;-16.4801;-7.1778;2.7054;-6.11;3.0726;5.8186;15.925;2.5296;2.4848;3.2367;0.0;18.0;9.3;32.89;218.95;-20.43;-22.9;0.0;70.01;39.468792;-0.342177;25.7;NaN;0.0;4.3;0.0;9 / 33;3065;2021-10-20 19:29:40:647
-0.933;-14.546;-16.4801;-4.142;8.8873;0.1484;3.0726;5.8186;15.925;2.5296;2.4848;3.2367;0.0;17.59;12.19;31.09;330.22;-16.01;130.41;0.0;70.01;39.468792;-0.342177;25.7;NaN;0.0;4.3;0.0;9 / 33;3114;2021-10-20 19:29:40:696
-4.3939;-6.189;1.445;-9.5481;0.6033;-2.1452;15.7052;-0.6837;2.1129;-1.763;1.0359;-0.1387;0.0;13.74;13.61;31.5;330.22;-16.01;130.41;0.0;70.01;39.468792;-0.342177;25.7;NaN;0.0;4.3;0.0;9 / 33;3165;2021-10-20 19:29:40:747
5.969;-28.632;-4.251;-9.5481;0.6033;-2.1452;-8.0775;19.165;5.7072;-1.763;1.0359;-0.1387;0.0;13.74;13.61;31.5;330.22;-16.01;130.41;0.0;70.01;39.468792;-0.342177;25.7;NaN;0.0;4.3;0.0;9 / 33;3214;2021-10-20 19:29:40:796
-1.235;-27.261;-9.837;-8.9447;-0.3017;-4.0079;-8.0775;19.165;5.7072;-0.2056;0.1815;-1.5438;0.0;10.2;16.8;30.3;305.04;1.76;114.14;0.0;63.921;39.468792;-0.342177;25.7;NaN;0.0;4.3;0.0;9 / 33;3265;2021-10-20 19:29:40:847
9.9;0.126;-4.5499;0.1101;-8.9064;-4.0989;-4.5252;3.6323;5.3134;-1.4063;-0.0362;-1.5818;0.0;10.8;22.39;24.84;138.6;65.28;-178.46;0.0;63.921;39.468792;-0.342177;25.7;NaN;0.0;4.3;0.0;9 / 33;3315;2021-10-20 19:29:40:897
-0.837;-0.933;-6.6131;-1.3503;1.2115;-9.6391;-10.9168;-10.7053;2.0916;-1.4063;-0.0362;-1.5818;0.0;10.8;22.39;24.84;138.6;65.28;-178.46;0.0;63.921;39.468792;-0.342177;25.7;NaN;0.0;4.3;0.0;9 / 33;3365;2021-10-20 19:29:40:947
-3.413;1.608;-1.2611;3.9744;8.418;-3.0981;2.4217;-9.371;-8.0943;-2.1763;-1.8444;-2.2247;0.0;11.64;24.06;22.09;18.29;-7.09;172.03;0.0;63.921;39.468792;-0.342177;25.7;NaN;0.0;4.3;0.0;9 / 33;3415;2021-10-20 19:29:40:997
-3.413;1.608;-1.2611;3.9744;8.418;-3.0981;2.4217;-9.371;-8.0943;-1.43;-2.4936;-5.8626;0.0;11.64;24.06;22.09;18.29;-7.09;172.03;0.0;63.921;39.468792;-0.342177;25.7;NaN;0.0;4.3;0.0;9 / 33;3465;2021-10-20 19:29:41:047
5.955;-18.9859;-6.821;-8.8538;-2.7773;-3.1795;-1.7882;-2.5565;-6.2742;-1.43;-2.4936;-5.8626;0.0;11.16;22.61;23.64;56.46;-59.09;-127.94;0.0;63.921;39.468792;-0.342177;25.7;NaN;0.0;4.3;0.0;9 / 33;3515;2021-10-20 19:29:41:097
3.9941;-41.634;-16.707;-7.4412;-5.0087;-3.9648;-0.5705;32.7221;14.411;0.2501;1.1465;2.3107;0.0;11.64;17.81;27.54;56.46;-59.09;-127.94;0.0;63.921;39.468792;-0.342177;25.7;NaN;0.0;4.3;0.0;9 / 33;3565;2021-10-20 19:29:41:147
0.059;2.91;0.543;-4.4005;-0.5507;8.7484;-0.5705;32.7221;14.411;-0.1995;0.2038;0.638;0.0;11.64;17.81;27.54;56.46;-59.09;-127.94;0.0;64.913;39.468792;-0.342177;25.7;NaN;0.0;4.3;0.0;9 / 33;3615;2021-10-20 19:29:41:197
-12.293;4.9661;6.005;-4.4005;-0.5507;8.7484;2.4619;-5.8063;-8.8819;-0.1995;0.2038;0.638;0.0;13.74;11.81;30.36;296.81;3.22;26.7;0.0;64.913;39.468792;-0.342177;25.7;NaN;0.0;4.3;0.0;9 / 33;3665;2021-10-20 19:29:41:247
-2.577;4.251;9.167;5.5019;5.0566;6.3542;9.1591;-16.6527;-10.6672;0.4679;1.1175;1.0542;0.0;16.8;9.66;29.7;142.55;-31.03;-40.89;0.0;64.913;39.468792;-0.342177;25.7;NaN;0.0;4.3;0.0;9 / 33;3714;2021-10-20 19:29:41:296
-2.577;4.251;9.167;-4.8985;8.2217;2.1548;2.0048;-8.5029;1.2565;0.4679;1.1175;1.0542;0.0;16.8;9.66;29.7;142.55;-31.03;-40.89;0.0;64.913;39.468792;-0.342177;25.7;NaN;0.0;4.3;0.0;9 / 33;3764;2021-10-20 19:29:41:346
5.6201;-13.44;-3.915;-7.1635;0.8811;-6.6415;0.7458;14.2013;25.0241;6.1955;0.3255;4.694;0.0;16.61;11.04;29.34;142.55;-31.03;-40.89;0.0;64.913;39.468792;-0.342177;25.7;NaN;0.0;4.3;0.0;9 / 33;3814;2021-10-20 19:29:41:396
-4.3459;-4.337;25.805;-4.8794;7.2209;-4.5011;0.7458;14.2013;25.0241;-0.5012;0.3499;-1.65;0.0;16.61;11.04;29.34;142.55;-31.03;-40.89;0.0;64.913;39.468792;-0.342177;25.7;NaN;0.0;4.3;0.0;9 / 33;3864;2021-10-20 19:29:41:446
6.06;-20.269;0.347;-8.8059;-2.9688;-3.1364;13.0298;0.5031;11.7223;-0.5012;0.3499;-1.65;0.0;13.01;11.76;31.2;335.48;-47.41;132.69;0.0;64.446;39.468792;-0.342177;25.7;NaN;0.0;4.3;0.0;9 / 33;3914;2021-10-20 19:29:41:496
4.4831;-23.943;-7.188;-8.8059;-2.9688;-3.1364;-8.7926;14.4801;10.2598;-1.5286;0.0953;-1.4653;0.0;10.01;13.86;31.2;285.86;17.62;109.6;0.0;64.446;39.468792;-0.342177;25.7;NaN;0.0;4.3;0.0;9 / 33;3964;2021-10-20 19:29:41:546
4.5551;-6.216;-3.578;-9.007;-0.1772;-3.8786;-0.834;7.7597;8.0863;-1.5286;0.0953;-1.4653;0.0;10.01;13.86;31.2;285.86;17.62;109.6;0.0;64.446;39.468758;-0.342157;25.6;NaN;0.0;4.2;0.0;9 / 33;4014;2021-10-20 19:29:41:596
4.5551;-6.216;-3.578;-0.2298;-9.0357;-3.802;-0.834;7.7597;8.0863;-1.5286;0.0953;-1.4653;0.0;10.26;19.01;27.3;285.86;17.62;109.6;0.0;64.446;39.468758;-0.342157;25.6;NaN;0.0;4.2;0.0;9 / 33;4065;2021-10-20 19:29:41:647
5.8181;1.1411;-1.524;-6.2728;6.2728;-4.1803;-4.7328;-10.8664;1.0544;-1.8727;-0.3699;-1.6477;0.0;12.84;21.66;24.6;337.42;-39.77;123.68;0.0;64.446;39.468758;-0.342157;25.6;NaN;0.0;4.2;0.0;9 / 33;4115;2021-10-20 19:29:41:697
-0.9589;-0.84;3.264;-3.2944;7.0677;-5.9424;3.4299;-8.5074;-4.939;-0.9512;-1.1965;-5.6768;0.0;12.84;21.66;24.6;337.42;-39.77;123.68;0.0;64.446;39.468758;-0.342157;25.6;NaN;0.0;4.2;0.0;9 / 33;4165;2021-10-20 19:29:41:747
3.0371;-4.646;0.4181;-3.2944;7.0677;-5.9424;-1.3258;3.7457;-1.2703;-0.9512;-1.1965;-5.6768;0.0;13.91;21.96;24.6;0.2;-46.13;151.0;0.0;63.89;39.468758;-0.342157;25.6;NaN;0.0;4.2;0.0;9 / 33;4214;2021-10-20 19:29:41:796
-3.159;-50.532;-8.892;-8.9352;-2.8874;-2.8252;-1.3258;3.7457;-1.2703;-1.1353;-1.3762;-5.9826;0.0;13.91;21.96;24.6;0.2;-46.13;151.0;0.0;63.89;39.468758;-0.342157;25.6;NaN;0.0;4.2;0.0;9 / 33;4265;2021-10-20 19:29:41:847
6.8981;-8.2031;-4.5499;-6.9097;-5.8083;-3.8355;-1.6182;40.5336;12.4316;-1.1353;-1.3762;-5.9826;0.0;14.81;19.69;26.16;0.2;-46.13;151.0;0.0;63.89;39.468758;-0.342157;25.6;NaN;0.0;4.2;0.0;9 / 33;4315;2021-10-20 19:29:41:897
6.8981;-8.2031;-4.5499;-6.9097;-5.8083;-3.8355;3.1996;-9.6774;-1.12;-0.0283;-0.4851;0.6355;0.0;15.9;15.41;29.16;255.55;36.31;119.03;0.0;63.89;39.468758;-0.342157;25.6;NaN;0.0;4.2;0.0;9 / 33;4365;2021-10-20 19:29:41:947
-4.911;1.859;6.7091;2.1356;5.6503;7.7237;3.1996;-9.6774;-1.12;0.0499;-0.2904;0.4792;0.0;15.9;15.41;29.16;255.55;36.31;119.03;0.0;63.89;39.468758;-0.342157;25.6;NaN;0.0;4.2;0.0;9 / 33;4415;2021-10-20 19:29:41:997
-3.918;5.136;10.412;5.1092;3.2801;7.7045;11.8809;-12.1677;-10.3898;0.0499;-0.2904;0.4792;0.0;17.4;14.34;28.86;255.55;36.31;119.03;0.0;63.89;39.468758;-0.342157;25.6;NaN;0.0;4.2;0.0;9 / 33;4465;2021-10-20 19:29:42:047
0.653;-5.368;-4.818;-8.9304;-3.8499;-1.2785;5.6837;-9.1997;-0.2615;7.7408;1.3724;5.9833;0.0;18.3;16.14;27.49;358.93;-19.53;-33.55;0.0;63.89;39.468758;-0.342157;25.6;NaN;0.0;4.2;0.0;9 / 33;4514;2021-10-20 19:29:42:096
10.749;-15.96;-14.752;-8.9304;-3.8499;-1.2785;-2.1867;14.5513;22.6114;7.7408;1.3724;5.9833;0.0;18.3;16.14;27.49;358.93;-19.53;-33.55;0.0;63.31;39.468758;-0.342157;25.6;NaN;0.0;4.2;0.0;9 / 33;4564;2021-10-20 19:29:42:146
23.2421;-14.2391;13.9781;0.3112;-1.8004;9.6343;-2.1867;14.5513;22.6114;-3.2735;0.3477;-0.4887;0.0;15.66;16.74;28.44;325.49;10.58;-1.85;0.0;63.31;39.468758;-0.342157;25.6;NaN;0.0;4.2;0.0;9 / 33;4614;2021-10-20 19:29:42:196
23.2421;-14.2391;13.9781;-9.6199;-0.7853;-1.7334;-24.2086;4.9377;-11.005;-1.2394;-0.3062;-1.7242;0.0;15.66;16.74;28.44;325.49;10.58;-1.85;0.0;63.31;39.468758;-0.342157;25.6;NaN;0.0;4.2;0.0;9 / 33;4664;2021-10-20 19:29:42:246
16.049;-24.568;-1.093;-8.7724;0.0;-4.3862;-16.0797;15.0379;3.4449;-1.2394;-0.3062;-1.7242;0.0;11.21;17.29;29.04;325.49;10.58;-1.85;0.0;63.31;39.468758;-0.342157;25.6;NaN;0.0;4.2;0.0;9 / 33;4715;2021-10-20 19:29:42:297
2.0801;-18.4309;-6.975;-8.7724;0.0;-4.3862;-1.4129;8.8092;8.7653;-0.4539;0.2019;-1.1877;0.0;8.76;20.64;26.1;317.52;0.0;116.57;0.0;63.31;39.468758;-0.342157;25.6;NaN;0.0;4.2;0.0;9 / 33;4765;2021-10-20 19:29:42:347
11.223;4.6841;-3.465;-1.0391;-8.7388;-4.3335;-1.4129;8.8092;8.7653;-2.0119;-0.7386;-1.5874;0.0;8.76;20.64;26.1;317.52;0.0;116.57;0.0;63.31;39.468758;-0.342157;25.6;NaN;0.0;4.2;0.0;9 / 33;4815;2021-10-20 19:29:42:397
-0.7249;-1.361;-7.1711;-1.8052;0.9673;-9.5912;-4.6112;-14.0607;0.2694;-2.0119;-0.7386;-1.5874;0.0;10.01;23.21;22.26;156.74;62.98;166.52;0.0;65.705;39.468758;-0.342157;25.6;NaN;0.0;4.2;0.0;9 / 33;4864;2021-10-20 19:29:42:446
-0.694;-0.677;1.1051;-4.4867;4.5777;7.422;4.9632;-8.8493;-5.7997;-1.4235;-2.1154;-3.856;0.0;10.56;23.89;21.6;156.74;62.98;166.52;0.0;65.705;39.468758;-0.342157;25.6;NaN;0.0;4.2;0.0;9 / 33;4914;2021-10-20 19:29:42:496
-1.457;-30.743;-6.9769;-4.4867;4.5777;7.422;4.9632;-8.8493;-5.7997;-1.4235;-2.1154;-3.856;0.0;10.56;23.89;21.6;156.74;62.98;166.52;0.0;65.705;39.468758;-0.342157;25.6;NaN;0.0;4.2;0.0;9 / 33;4965;2021-10-20 19:29:42:547
-1.457;-30.743;-6.9769;-9.5577;0.4501;-2.1691;-1.3873;13.2574;4.4509;0.3076;-0.3998;-0.0246;0.0;10.5;22.14;22.5;318.63;-2.63;102.79;0.0;65.705;39.46871;-0.342133;25.5;NaN;0.0;4.1;0.0;10 / 33;5015;2021-10-20 19:29:42:597
31.502;-26.835;-14.8159;-7.3119;-5.272;-3.8595;-26.6856;18.4054;13.3643;-0.2298;-0.3389;1.2481;0.0;10.5;22.14;22.5;318.63;-2.63;102.79;0.0;65.705;39.46871;-0.342133;25.5;NaN;0.0;4.1;0.0;10 / 33;5064;2021-10-20 19:29:42:646
-0.4519;-2.905;5.7011;3.486;6.9719;5.9472;-26.6856;18.4054;13.3643;-0.2298;-0.3389;1.2481;0.0;10.8;17.59;25.5;280.85;32.52;117.83;0.0;65.705;39.46871;-0.342133;25.5;NaN;0.0;4.1;0.0;10 / 33;5114;2021-10-20 19:29:42:696
-5.823;3.176;11.343;3.486;6.9719;5.9472;10.0421;-11.706;-6.7986;-0.2277;0.1535;1.1421;0.0;13.01;15.79;26.16;280.85;32.52;117.83;0.0;64.222;39.46871;-0.342133;25.5;NaN;0.0;4.1;0.0;10 / 33;5164;2021-10-20 19:29:42:746
-1.5431;-0.4999;0.4451;3.2992;3.8355;8.4036;7.2478;-14.537;-5.766;7.8991;2.5704;4.7213;0.0;13.01;15.79;26.16;280.85;32.52;117.83;0.0;64.222;39.46871;-0.342133;25.5;NaN;0.0;4.1;0.0;10 / 33;5214;2021-10-20 19:29:42:796
1.1561;-25.662;-21.9041;-8.3893;-3.0263;-4.0845;-5.6226;7.2033;12.2373;7.8991;2.5704;4.7213;0.0;15.36;17.16;23.7;312.56;-23.02;-21.43;0.0;64.222;39.46871;-0.342133;25.5;NaN;0.0;4.1;0.0;10 / 33;5264;2021-10-20 19:29:42:846
1.1561;-25.662;-21.9041;-4.525;3.4477;7.9918;-5.6226;7.2033;12.2373;-1.4858;2.6268;1.7564;0.0;13.8;17.94;25.14;295.39;-20.58;29.52;0.0;64.222;39.46871;-0.342133;25.5;NaN;0.0;4.1;0.0;10 / 33;5314;2021-10-20 19:29:42:896
-7.3459;-5.349;1.8791;-8.8202;-0.996;4.1707;9.8533;3.8975;-20.0647;-2.243;-0.4733;-0.8327;0.0;13.8;17.94;25.14;295.39;-20.58;29.52;0.0;64.222;39.46871;-0.342133;25.5;NaN;0.0;4.1;0.0;10 / 33;5364;2021-10-20 19:29:42:946
6.9941;-29.875;-11.9801;-8.8202;-0.996;4.1707;-6.685;20.2267;13.7322;-2.243;-0.4733;-0.8327;0.0;10.31;18.66;27.66;295.39;-20.58;29.52;0.0;64.222;39.46871;-0.342133;25.5;NaN;0.0;4.1;0.0;10 / 33;5415;2021-10-20 19:29:42:997
3.521;-24.731;-13.129;-8.6;-1.221;-4.5633;-6.685;20.2267;13.7322;-0.1643;0.0352;-1.1956;0.0;10.31;18.66;27.66;295.39;-20.58;29.52;0.0;64.222;39.46871;-0.342133;25.5;NaN;0.0;4.1;0.0;10 / 33;5465;2021-10-20 19:29:43:047
9.969;-0.004;-3.901;0.0;-9.1315;-3.5721;-1.5265;10.7301;6.7143;-0.1643;0.0352;-1.1956;0.0;7.74;22.69;25.56;316.75;7.15;117.95;0.0;65.623;39.46871;-0.342133;25.5;NaN;0.0;4.1;0.0;10 / 33;5514;2021-10-20 19:29:43:096
1.067;-0.21;-0.117;0.0;-9.1315;-3.5721;-8.8632;-12.1705;5.4315;-1.3749;-0.3917;-1.1553;0.0;8.64;26.34;22.09;140.75;68.64;-180.0;0.0;65.623;39.46871;-0.342133;25.5;NaN;0.0;4.1;0.0;10 / 33;5564;2021-10-20 19:29:43:146
1.067;-0.21;-0.117;-1.1396;-1.6185;-9.6055;-8.8632;-12.1705;5.4315;-1.618;-2.4095;-2.3346;0.0;8.64;26.34;22.09;140.75;68.64;-180.0;0.0;65.623;39.46871;-0.342133;25.5;NaN;0.0;4.1;0.0;10 / 33;5614;2021-10-20 19:29:43:196
0.732;0.6311;3.6551;7.4316;-0.9816;6.3255;3.0667;-8.5648;1.039;-1.618;-2.4095;-2.3346;0.0;9.3;27.11;21.19;140.75;68.64;-180.0;0.0;65.623;39.46871;-0.342133;25.5;NaN;0.0;4.1;0.0;10 / 33;5665;2021-10-20 19:29:43:247
7.2311;-5.45;4.598;-8.418;-3.9169;-3.1556;6.0108;-6.2695;1.2926;-1.0013;-1.9048;-5.6885;0.0;9.0;26.21;23.1;313.18;23.54;110.55;0.0;65.623;39.46871;-0.342133;25.5;NaN;0.0;4.1;0.0;10 / 33;5715;2021-10-20 19:29:43:297
-1.831;-49.0691;-5.467;-8.9687;-2.5522;-3.0311;-0.9083;30.5205;3.6797;-0.0106;0.9622;2.7402;0.0;9.0;26.21;23.1;313.18;23.54;110.55;0.0;65.623;39.46871;-0.342133;25.5;NaN;0.0;4.1;0.0;10 / 33;5765;2021-10-20 19:29:43:347
10.67;-14.06;-5.9839;-8.9687;-2.5522;-3.0311;-0.9083;30.5205;3.6797;-0.0106;0.9622;2.7402;0.0;7.8;22.31;27.36;306.48;15.09;108.67;0.0;61.617;39.46871;-0.342133;25.5;NaN;0.0;4.1;0.0;10 / 33;5815;2021-10-20 19:29:43:397
-5.483;-0.6979;5.802;-9.0261;-3.8355;-0.2298;-5.403;6.0195;4.0052;-0.2028;0.1892;1.1469;0.0;7.8;22.31;27.36;306.48;15.09;108.67;0.0;61.617;39.46871;-0.342133;25.5;NaN;0.0;4.1;0.0;10 / 33;5864;2021-10-20 19:29:43:446
-5.483;-0.6979;5.802;3.5051;6.8857;6.043;14.7896;-13.7694;-10.8941;-0.2028;0.1892;1.1469;0.0;8.76;18.49;29.89;306.48;15.09;108.67;0.0;61.617;39.46871;-0.342133;25.5;NaN;0.0;4.1;0.0;10 / 33;5914;2021-10-20 19:29:43:496
-8.2069;4.0301;9.189;3.8738;5.9759;6.7421;14.7896;-13.7694;-10.8941;0.3;1.485;0.9103;0.0;11.21;18.19;29.16;131.8;-37.54;-29.88;0.0;61.617;39.46871;-0.342133;25.5;NaN;0.0;4.1;0.0;10 / 33;5964;2021-10-20 19:29:43:546
5.694;-6.795;-8.078;3.8738;5.9759;6.7421;4.4264;-7.0476;3.1139;6.0488;2.8119;5.3604;0.0;11.21;18.19;29.16;131.8;-37.54;-29.88;0.0;61.617;39.468693;-0.342098;25.5;NaN;0.0;4.0;0.0;11 / 33;6014;2021-10-20 19:29:43:596
16.5161;-24.087;14.337;-6.9336;-2.0542;-6.6271;-7.242;14.2984;26.0754;6.0488;2.8119;5.3604;0.0;10.01;19.31;28.09;314.31;12.09;133.71;0.0;61.617;39.468693;-0.342098;25.5;NaN;0.0;4.0;0.0;11 / 33;6064;2021-10-20 19:29:43:646
8.351;2.19;25.118;0.8045;-3.0837;9.2751;-8.0785;-11.6927;-22.7513;-1.0827;0.3318;-1.1531;0.0;6.96;19.26;29.7;314.31;12.09;133.71;0.0;64.465;39.468693;-0.342098;25.5;NaN;0.0;4.0;0.0;11 / 33;6114;2021-10-20 19:29:43:696
15.2921;-19.3931;-1.115;-7.695;-6.0669;-0.4357;-8.0785;-11.6927;-22.7513;-1.1129;-0.063;-1.1518;0.0;6.96;19.26;29.7;314.31;12.09;133.71;0.0;64.465;39.468693;-0.342098;25.5;NaN;0.0;4.0;0.0;11 / 33;6164;2021-10-20 19:29:43:746
3.123;-17.454;-9.411;-7.695;-6.0669;-0.4357;-14.4046;9.7794;2.891;-1.1129;-0.063;-1.1518;0.0;4.91;21.41;29.34;293.39;38.21;93.24;0.0;64.465;39.468693;-0.342098;25.5;NaN;0.0;4.0;0.0;11 / 33;6214;2021-10-20 19:29:43:796
3.123;-17.454;-9.411;-6.8522;-4.9368;-4.9847;-2.7599;-3.3029;5.5475;-1.8285;-0.4473;-1.0597;0.0;4.91;21.41;29.34;293.39;38.21;93.24;0.0;64.465;39.468693;-0.342098;25.5;NaN;0.0;4.0;0.0;11 / 33;6264;2021-10-20 19:29:43:846
10.7831;6.62;-3.8749;0.3879;-8.9687;-3.9456;-2.7599;-3.3029;5.5475;-1.2528;-1.9999;-2.5458;0.0;5.46;26.16;24.0;293.39;38.21;93.24;0.0;64.465;39.468693;-0.342098;25.5;NaN;0.0;4.0;0.0;11 / 33;6314;2021-10-20 19:29:43:896
-1.445;-0.366;-4.617;-0.1245;7.6662;6.1196;3.4031;-6.7167;-0.1461;-1.2528;-1.9999;-2.5458;0.0;6.6;28.31;20.46;125.04;66.15;-174.39;0.0;64.465;39.468693;-0.342098;25.5;NaN;0.0;4.0;0.0;11 / 33;6364;2021-10-20 19:29:43:946
1.929;-1.62;-1.2109;-5.6695;-7.7572;1.968;7.9288;-7.5604;-2.6235;-0.3635;-2.3188;-5.9256;0.0;6.6;28.31;20.46;125.04;66.15;-174.39;0.0;64.465;39.468693;-0.342098;25.5;NaN;0.0;4.0;0.0;11 / 33;6414;2021-10-20 19:29:43:996
9.3971;-35.3539;-6.7969;-5.6695;-7.7572;1.968;-3.9486;13.7295;5.6918;-0.3635;-2.3188;-5.9256;0.0;7.01;28.01;21.54;307.34;52.27;70.86;0.0;63.874;39.468693;-0.342098;25.5;NaN;0.0;4.0;0.0;11 / 33;6465;2021-10-20 19:29:44:047
24.6251;-18.258;-10.7419;-9.7492;-0.656;-0.814;-3.9486;13.7295;5.6918;-0.0375;-0.0408;2.002;0.0;6.54;24.96;26.59;307.34;52.27;70.86;0.0;63.874;39.468693;-0.342098;25.5;NaN;0.0;4.0;0.0;11 / 33;6515;2021-10-20 19:29:44:097
24.6251;-18.258;-10.7419;4.5873;-6.2441;6.0094;-19.0261;10.4098;8.8674;-0.0309;-0.2412;0.9241;0.0;6.54;24.96;26.59;307.34;52.27;70.86;0.0;63.874;39.468693;-0.342098;25.5;NaN;0.0;4.0;0.0;11 / 33;6564;2021-10-20 19:29:44:146
-2.4191;2.2811;7.968;2.5235;7.288;6.0621;14.8247;-10.0716;-10.9977;-0.0309;-0.2412;0.9241;0.0;7.86;20.51;30.54;19.6;39.55;-37.36;0.0;63.874;39.468693;-0.342098;25.5;NaN;0.0;4.0;0.0;11 / 33;6614;2021-10-20 19:29:44:196
-6.92;2.3741;9.4541;2.5235;7.288;6.0621;14.8247;-10.0716;-10.9977;0.1672;1.7179;1.5953;0.0;7.86;20.51;30.54;19.6;39.55;-37.36;0.0;63.874;39.468693;-0.342098;25.5;NaN;0.0;4.0;0.0;11 / 33;6665;2021-10-20 19:29:44:247
0.969;-3.509;-2.218;3.6248;6.2632;6.6224;11.6509;-13.6156;-5.7688;6.3045;3.7509;2.0849;0.0;10.14;19.01;30.84;166.76;-47.98;-22.6;0.0;63.874;39.468693;-0.342098;25.5;NaN;0.0;4.0;0.0;11 / 33;6714;2021-10-20 19:29:44:296
8.703;-19.716;-20.0531;-7.6519;-4.0558;-4.6017;-8.2734;9.5193;14.8482;6.3045;3.7509;2.0849;0.0;9.6;19.44;29.1;166.76;-47.98;-22.6;0.0;64.276;39.468693;-0.342098;25.5;NaN;0.0;4.0;0.0;11 / 33;6764;2021-10-20 19:29:44:346
-1.046;6.1181;1.5461;-5.047;7.8961;-2.897;15.0743;-0.3403;8.0906;-2.6782;2.1251;1.517;0.0;9.6;19.44;29.1;166.76;-47.98;-22.6;0.0;64.276;39.468693;-0.342098;25.5;NaN;0.0;4.0;0.0;11 / 33;6815;2021-10-20 19:29:44:397
24.233;-26.892;-2.6591;-8.5473;-3.8116;-2.9353;15.0743;-0.3403;8.0906;-2.6782;2.1251;1.517;0.0;6.36;19.01;29.76;320.04;-53.61;119.86;0.0;64.276;39.468693;-0.342098;25.5;NaN;0.0;4.0;0.0;11 / 33;6865;2021-10-20 19:29:44:447
24.233;-26.892;-2.6591;-8.4755;-3.0406;-3.8786;-22.5026;17.4225;4.5576;-1.3742;-0.184;-0.9674;0.0;2.51;20.59;29.59;300.36;18.07;114.59;0.0;64.276;39.468693;-0.342098;25.5;NaN;0.0;4.0;0.0;11 / 33;6915;2021-10-20 19:29:44:497
7.1711;-22.0931;-7.709;0.9625;-9.6678;-1.3312;-4.3863;1.3261;5.6693;-1.5995;-0.248;-0.7502;0.0;2.51;20.59;29.59;300.36;18.07;114.59;0.0;64.276;39.468693;-0.342098;25.5;NaN;0.0;4.0;0.0;11 / 33;6965;2021-10-20 19:29:44:547
8.186;6.161;-4.349;0.9625;-9.6678;-1.3312;-4.3863;1.3261;5.6693;-1.5995;-0.248;-0.7502;0.0;2.4;25.09;23.76;131.41;80.36;-144.13;0.0;64.276;39.468662;-0.342068;25.4;NaN;0.0;3.9;0.0;12 / 33;7015;2021-10-20 19:29:44:597
-1.716;0.3941;-7.283;-4.5921;-8.6335;0.7326;3.1246;-8.7132;-0.2214;-1.6299;-1.0531;-1.5995;0.0;2.4;25.09;23.76;131.41;80.36;-144.13;0.0;65.403;39.468662;-0.342068;25.4;NaN;0.0;3.9;0.0;12 / 33;7064;2021-10-20 19:29:44:646
1.089;-2.0479;-3.059;-1.5227;0.5698;9.6726;5.6757;-7.5712;-4.058;-0.7127;-3.0874;-3.3186;0.0;4.14;28.14;19.69;131.41;80.36;-144.13;0.0;65.403;39.468662;-0.342068;25.4;NaN;0.0;3.9;0.0;12 / 33;7114;2021-10-20 19:29:44:696
1.089;-2.0479;-3.059;-7.7859;-5.4061;-2.5139;5.6757;-7.5712;-4.058;-0.7127;-3.0874;-3.3186;0.0;4.8;28.26;20.4;343.31;-3.33;8.95;0.0;65.403;39.468662;-0.342068;25.4;NaN;0.0;3.9;0.0;12 / 33;7164;2021-10-20 19:29:44:746
16.2791;-30.4301;-4.363;-9.3613;-2.083;-2.0494;-9.3612;23.7753;2.3349;-0.279;-2.3992;-6.5405;0.0;4.8;28.26;20.4;343.31;-3.33;8.95;0.0;65.403;39.468662;-0.342068;25.4;NaN;0.0;3.9;0.0;12 / 33;7215;2021-10-20 19:29:44:797
24.8741;-18.988;-11.3621;-9.3613;-2.083;-2.0494;-18.7692;11.5362;9.5075;-0.279;-2.3992;-6.5405;0.0;4.26;25.14;24.84;313.63;12.26;102.35;0.0;65.403;39.468662;-0.342068;25.4;NaN;0.0;3.9;0.0;12 / 33;7265;2021-10-20 19:29:44:847
-0.629;2.1821;6.47;-8.169;-5.2194;-1.4748;6.2673;-9.9889;-8.3032;0.1077;-0.2038;1.0542;0.0;5.4;22.56;28.2;313.63;12.26;102.35;0.0;65.403;39.468662;-0.342068;25.4;NaN;0.0;3.9;0.0;12 / 33;7315;2021-10-20 19:29:44:897
-7.125;3.884;9.464;2.6863;7.9392;5.0949;6.2673;-9.9889;-8.3032;-0.1045;1.3589;1.6987;0.0;5.4;22.56;28.2;313.63;12.26;102.35;0.0;65.403;39.468662;-0.342068;25.4;NaN;0.0;3.9;0.0;12 / 33;7364;2021-10-20 19:29:44:946
-2.537;-2.747;3.267;3.9025;6.0142;6.6894;12.2174;-12.1408;-10.8704;-0.1045;1.3589;1.6987;0.0;8.21;22.61;27.84;147.97;-54.04;-27.8;0.0;65.403;39.468662;-0.342068;25.4;NaN;0.0;3.9;0.0;12 / 33;7415;2021-10-20 19:29:44:997
3.851;-20.051;-15.91;-7.5992;-5.5737;-2.715;5.7415;-6.0977;-0.4597;7.1209;3.8941;5.5212;0.0;8.21;22.61;27.84;147.97;-54.04;-27.8;0.0;64.577;39.468662;-0.342068;25.4;NaN;0.0;3.9;0.0;12 / 33;7465;2021-10-20 19:29:45:047
3.851;-20.051;-15.91;-0.5459;-0.1628;9.7923;-8.7552;2.482;17.4149;-3.9979;-0.3546;-0.3648;0.0;8.7;23.81;26.89;293.56;34.63;109.66;0.0;64.577;39.468662;-0.342068;25.4;NaN;0.0;3.9;0.0;12 / 33;7515;2021-10-20 19:29:45:097
-15.539;-17.894;-0.067;-0.5459;-0.1628;9.7923;-8.7552;2.482;17.4149;-3.9979;-0.3546;-0.3648;0.0;5.81;23.04;28.8;342.05;0.95;3.19;0.0;64.577;39.468662;-0.342068;25.4;NaN;0.0;3.9;0.0;12 / 33;7564;2021-10-20 19:29:45:146
4.44;-19.5701;-6.0221;-9.2368;-2.3846;2.2793;-20.6225;0.4102;-1.3716;-1.4662;-0.561;-1.3168;0.0;5.81;23.04;28.8;342.05;0.95;3.19;0.0;64.577;39.468662;-0.342068;25.4;NaN;0.0;3.9;0.0;12 / 33;7614;2021-10-20 19:29:45:196
9.701;-23.9651;-10.022;-8.4755;-3.4333;-3.5434;-16.4782;11.4742;5.5805;-1.4662;-0.561;-1.3168;0.0;1.31;23.59;29.64;310.17;14.07;76.14;0.0;64.577;39.468662;-0.342068;25.4;NaN;0.0;3.9;0.0;12 / 33;7664;2021-10-20 19:29:45:246
7.257;-3.047;-3.2929;-3.5003;-8.3462;-3.7828;-16.4782;11.4742;5.5805;-0.4745;-0.0297;-1.2158;0.0;-0.3;27.66;25.14;310.17;14.07;76.14;0.0;64.577;39.468662;-0.342068;25.4;NaN;0.0;3.9;0.0;12 / 33;7715;2021-10-20 19:29:45:297
2.7401;0.3731;0.0431;1.3072;-9.7205;0.1437;-4.2562;-6.1759;4.8145;-1.6983;-1.3509;-1.5331;0.0;-0.3;27.66;25.14;310.17;14.07;76.14;0.0;65.49;39.468662;-0.342068;25.4;NaN;0.0;3.9;0.0;12 / 33;7765;2021-10-20 19:29:45:347
2.7401;0.3731;0.0431;1.3072;-9.7205;0.1437;1.3913;-9.2533;0.369;-1.6983;-1.3509;-1.5331;0.0;0.41;29.64;21.84;73.68;82.3;-83.73;0.0;65.49;39.468662;-0.342068;25.4;NaN;0.0;3.9;0.0;12 / 33;7814;2021-10-20 19:29:45:396
-0.6791;0.653;4.026;1.5227;1.5897;9.5577;6.5222;-8.4719;-4.763;-0.6476;-3.1691;-3.2345;0.0;0.41;29.64;21.84;73.68;82.3;-83.73;0.0;65.49;39.468662;-0.342068;25.4;NaN;0.0;3.9;0.0;12 / 33;7865;2021-10-20 19:29:45:447
9.249;-5.737;1.223;-5.138;-8.2839;1.087;6.5222;-8.4719;-4.763;0.7508;-0.6574;-3.5687;0.0;0.66;28.86;22.14;5.64;-9.33;-9.05;0.0;65.49;39.468662;-0.342068;25.4;NaN;0.0;3.9;0.0;12 / 33;7915;2021-10-20 19:29:45:497
9.335;-47.511;-4.902;-9.572;-1.8818;-0.9864;-4.8174;15.4253;6.681;0.7508;-0.6574;-3.5687;0.0;1.01;26.51;24.79;5.64;-9.33;-9.05;0.0;65.49;39.468662;-0.342068;25.4;NaN;0.0;3.9;0.0;12 / 33;7964;2021-10-20 19:29:45:546
9.632;-12.411;-3.3169;-9.572;-1.8818;-0.9864;-12.6695;30.1365;11.6245;-0.5562;0.5167;2.3331;0.0;1.01;26.51;24.79;5.64;-9.33;-9.05;0.0;65.49;39.468624;-0.342038;25.3;NaN;2.45;3.8;143.32;13 / 33;8014;2021-10-20 19:29:45:596
-9.4759;2.915;5.349;-8.9878;-3.9169;0.1389;10.7767;-10.1148;-6.4995;-0.5193;0.4183;1.3666;0.0;2.04;22.31;29.16;303.96;23.55;89.11;0.0;62.597;39.468624;-0.342038;25.3;NaN;2.45;3.8;143.32;13 / 33;8065;2021-10-20 19:29:45:647
-9.4759;2.915;5.349;2.466;7.2496;6.1244;10.7767;-10.1148;-6.4995;-0.5193;0.4183;1.3666;0.0;4.61;19.86;30.6;142.89;-47.68;-21.93;0.0;62.597;39.468624;-0.342038;25.3;NaN;2.45;3.8;143.32;13 / 33;8115;2021-10-20 19:29:45:697
-7.662;3.798;7.908;3.9648;6.1579;6.5218;13.2285;-9.1226;-9.9643;3.6163;4.0622;1.54;0.0;4.61;19.86;30.6;142.89;-47.68;-21.93;0.0;62.597;39.468624;-0.342038;25.3;NaN;2.45;3.8;143.32;13 / 33;8165;2021-10-20 19:29:45:747
9.9431;-7.0009;-8.588;-7.4029;-5.4492;-3.4237;5.8176;-6.7455;1.8773;3.6163;4.0622;1.54;0.0;6.06;20.89;28.86;96.73;-38.9;-31.3;0.0;62.597;39.468624;-0.342038;25.3;NaN;2.45;3.8;143.32;13 / 33;8214;2021-10-20 19:29:45:796
12.9971;-13.6819;8.832;-7.4029;-5.4492;-3.4237;-11.9807;4.688;-5.0337;3.1921;3.2948;3.2673;0.0;6.06;20.89;28.86;96.73;-38.9;-31.3;0.0;62.597;39.468624;-0.342038;25.3;NaN;2.45;3.8;143.32;13 / 33;8264;2021-10-20 19:29:45:846
7.5041;0.014;13.7321;0.565;6.766;-7.0773;-11.9807;4.688;-5.0337;-2.7793;-0.1547;-0.4022;0.0;4.74;21.19;29.04;288.66;33.75;114.82;0.0;62.597;39.468624;-0.342038;25.3;NaN;2.45;3.8;143.32;13 / 33;8314;2021-10-20 19:29:45:896
16.355;-20.1011;-2.336;-7.6471;-6.0142;-1.2354;-5.9784;-9.3345;-11.0831;-2.7793;-0.1547;-0.4022;0.0;2.04;21.19;30.36;293.01;37.83;99.18;0.0;62.597;39.468624;-0.342038;25.3;NaN;2.45;3.8;143.32;13 / 33;8364;2021-10-20 19:29:45:946
16.355;-20.1011;-2.336;-8.4324;-3.7254;-3.3519;-4.8384;8.302;11.9393;-0.8709;-0.2326;-1.1447;0.0;2.04;21.19;30.36;293.01;37.83;99.18;0.0;64.757;39.468624;-0.342038;25.3;NaN;2.45;3.8;143.32;13 / 33;8414;2021-10-20 19:29:45:996
7.221;-15.898;-5.756;4.8794;-7.9248;-3.0885;-3.6111;-4.6168;3.5528;-1.0649;-0.5109;-1.383;0.0;-0.84;25.01;27.49;293.01;37.83;99.18;0.0;64.757;39.468624;-0.342038;25.3;NaN;2.45;3.8;143.32;13 / 33;8464;2021-10-20 19:29:46:046
10.0001;7.121;-4.035;4.8794;-7.9248;-3.0885;-3.6111;-4.6168;3.5528;-1.0649;-0.5109;-1.383;0.0;0.06;29.34;22.86;69.83;53.92;-122.33;0.0;64.757;39.468624;-0.342038;25.3;NaN;2.45;3.8;143.32;13 / 33;8514;2021-10-20 19:29:46:096
-0.768;0.107;-6.766;-7.6279;4.1755;-4.5346;5.2772;-7.2708;0.5537;-0.9512;-2.6724;-2.2617;0.0;0.06;29.34;22.86;69.83;53.92;-122.33;0.0;64.757;39.468624;-0.342038;25.3;NaN;2.45;3.8;143.32;13 / 33;8564;2021-10-20 19:29:46:146
1.491;-0.4091;-0.5861;-0.3831;4.3239;8.7915;7.7597;-7.1009;-3.7158;-0.9512;-2.6724;-2.2617;0.0;1.5;30.49;22.2;350.29;-26.17;2.49;0.0;64.757;39.468624;-0.342038;25.3;NaN;2.45;3.8;143.32;13 / 33;8614;2021-10-20 19:29:46:196
16.188;-26.945;-3.454;-7.8626;-5.2625;-2.5809;7.7597;-7.1009;-3.7158;0.1347;-1.8109;-6.738;0.0;1.5;30.49;22.2;350.29;-26.17;2.49;0.0;64.757;39.468624;-0.342038;25.3;NaN;2.45;3.8;143.32;13 / 33;8664;2021-10-20 19:29:46:246
28.548;-19.254;-9.624;-8.9926;-3.3519;-2.0159;-8.5578;20.9962;1.7977;-0.2786;0.4465;2.4137;0.0;1.8;29.34;24.3;311.23;32.45;108.17;0.0;63.044;39.468624;-0.342038;25.3;NaN;2.45;3.8;143.32;13 / 33;8715;2021-10-20 19:29:46:297
28.548;-19.254;-9.624;-8.9926;-3.3519;-2.0159;-21.6682;12.4207;8.0526;-0.2786;0.4465;2.4137;0.0;2.16;25.26;29.46;306.56;19.99;102.64;0.0;63.044;39.468624;-0.342038;25.3;NaN;2.45;3.8;143.32;13 / 33;8765;2021-10-20 19:29:46:347
-3.4939;5.304;3.906;6.9815;4.5969;5.1332;14.5025;-9.3849;-4.4245;-0.0989;-0.0609;1.0028;0.0;2.16;25.26;29.46;306.56;19.99;102.64;0.0;63.044;39.468624;-0.342038;25.3;NaN;2.45;3.8;143.32;13 / 33;8814;2021-10-20 19:29:46:396
-7.123;1.7111;9.0881;2.4469;7.0294;6.3829;14.5025;-9.3849;-4.4245;-0.0929;1.3855;1.1485;0.0;4.74;23.04;32.34;306.56;19.99;102.64;0.0;63.044;39.468624;-0.342038;25.3;NaN;2.45;3.8;143.32;13 / 33;8864;2021-10-20 19:29:46:446
-2.776;-1.1959;4.062;2.4469;7.0294;6.3829;13.7299;-10.5587;-7.8675;-0.0929;1.3855;1.1485;0.0;6.0;23.94;31.14;135.34;-45.8;-20.97;0.0;63.044;39.468624;-0.342038;25.3;NaN;2.45;3.8;143.32;13 / 33;8915;2021-10-20 19:29:46:497
9.6701;-24.4001;-20.226;-7.7812;-5.1811;-2.964;-3.274;-1.9356;10.6976;5.8381;3.9003;6.0657;0.0;6.0;23.94;31.14;135.34;-45.8;-20.97;0.0;63.044;39.468624;-0.342038;25.3;NaN;2.45;3.8;143.32;13 / 33;8965;2021-10-20 19:29:46:547
-16.87;4.023;-12.425;-3.9361;1.8531;8.7867;5.8862;0.4831;-17.8424;-1.5249;0.2835;-0.8537;0.0;3.96;23.21;31.8;135.34;-45.8;-20.97;0.0;62.187;39.46861;-0.342018;25.3;NaN;2.96;3.7;144.54;13 / 33;9015;2021-10-20 19:29:46:597
-16.87;4.023;-12.425;-9.1602;-3.5003;0.1532;5.8862;0.4831;-17.8424;-1.5249;0.2835;-0.8537;0.0;3.96;23.21;31.8;135.34;-45.8;-20.97;0.0;62.187;39.46861;-0.342018;25.3;NaN;2.96;3.7;144.54;13 / 33;9064;2021-10-20 19:29:46:646
25.07;-31.761;-2.168;-8.0349;-3.8164;-4.1276;-8.438;17.582;1.8696;-1.2309;-0.4086;-1.3089;0.0;0.54;22.26;33.19;301.7;20.91;89.04;0.0;62.187;39.46861;-0.342018;25.3;NaN;2.96;3.7;144.54;13 / 33;9114;2021-10-20 19:29:46:696
11.6351;-21.114;-7.068;-8.0349;-3.8164;-4.1276;-5.026;6.892;10.0646;-1.2309;-0.4086;-1.3089;0.0;-3.66;25.61;29.94;301.7;20.91;89.04;0.0;62.187;39.46861;-0.342018;25.3;NaN;2.96;3.7;144.54;13 / 33;9164;2021-10-20 19:29:46:746
7.848;2.831;-1.938;-6.5266;-5.7126;-4.5729;-2.9327;-1.9603;6.1004;-1.5788;-0.4278;-1.1602;0.0;-3.66;25.61;29.94;301.7;20.91;89.04;0.0;62.187;39.46861;-0.342018;25.3;NaN;2.96;3.7;144.54;13 / 33;9215;2021-10-20 19:29:46:797
0.77;0.581;-0.32;5.0949;-8.0637;-2.2889;-0.9538;-12.142;1.6082;-0.941;-2.1362;-2.2701;0.0;-3.84;30.06;24.54;308.22;35.63;125.02;0.0;62.187;39.46861;-0.342018;25.3;NaN;2.96;3.7;144.54;13 / 33;9264;2021-10-20 19:29:46:846
-1.493;-1.338;0.945;-6.9145;4.9704;4.8602;6.4624;-6.957;-1.5213;-0.941;-2.1362;-2.2701;0.0;-3.36;31.26;23.34;317.68;-30.46;54.9;0.0;62.187;39.46861;-0.342018;25.3;NaN;2.96;3.7;144.54;13 / 33;9314;2021-10-20 19:29:46:896
-1.493;-1.338;0.945;-3.984;-7.7141;4.5586;6.4624;-6.957;-1.5213;0.6485;-2.4454;-5.847;0.0;-3.36;31.26;23.34;317.68;-30.46;54.9;0.0;65.071;39.46861;-0.342018;25.3;NaN;2.96;3.7;144.54;13 / 33;9364;2021-10-20 19:29:46:946
9.26;-12.676;-6.6251;-9.2225;-3.2609;-0.7087;-9.8705;18.4822;2.2875;0.7961;-1.0917;-5.0751;0.0;-2.59;29.29;25.5;317.68;-30.46;54.9;0.0;65.071;39.46861;-0.342018;25.3;NaN;2.96;3.7;144.54;13 / 33;9414;2021-10-20 19:29:46:996
20.927;-44.22;-10.196;-9.2225;-3.2609;-0.7087;-26.4296;13.0678;10.0434;0.7961;-1.0917;-5.0751;0.0;-2.59;29.29;25.5;317.68;-30.46;54.9;0.0;65.071;39.46861;-0.342018;25.3;NaN;2.96;3.7;144.54;13 / 33;9465;2021-10-20 19:29:47:047
2.439;0.0641;-3.36;-4.9943;-7.5896;-3.6966;4.5081;-6.8348;1.9547;-0.2064;-0.1306;1.0748;0.0;-1.39;22.99;29.94;305.33;19.42;94.39;0.0;65.071;39.46861;-0.342018;25.3;NaN;2.96;3.7;144.54;13 / 33;9514;2021-10-20 19:29:47:096
-11.187;-4.3391;7.7291;-3.9552;3.1364;8.4084;4.5081;-6.8348;1.9547;-0.2064;-0.1306;1.0748;0.0;-0.19;20.29;33.0;305.33;19.42;94.39;0.0;65.071;39.46861;-0.342018;25.3;NaN;2.96;3.7;144.54;13 / 33;9565;2021-10-20 19:29:47:147
-9.215;7.475;6.132;5.4875;6.766;4.5059;18.0394;-7.5037;-7.0931;-0.3736;0.2064;0.7131;0.0;2.81;20.89;32.7;302.69;-18.65;25.19;0.0;65.071;39.46861;-0.342018;25.3;NaN;2.96;3.7;144.54;13 / 33;9615;2021-10-20 19:29:47:197
11.5991;-14.0209;-4.607;5.4875;6.766;4.5059;-1.7824;-1.8382;5.7845;-0.3736;0.2064;0.7131;0.0;2.81;20.89;32.7;302.69;-18.65;25.19;0.0;64.013;39.46861;-0.342018;25.3;NaN;2.96;3.7;144.54;13 / 33;9665;2021-10-20 19:29:47:247
11.5991;-14.0209;-4.607;-7.5178;-3.0502;-5.5115;-1.7824;-1.8382;5.7845;-0.3736;0.2064;0.7131;0.0;3.66;22.99;30.79;302.69;-18.65;25.19;0.0;64.013;39.46861;-0.342018;25.3;NaN;2.96;3.7;144.54;13 / 33;9715;2021-10-20 19:29:47:297
9.512;-8.8631;37.185;0.4166;8.2983;-5.2146;-17.2881;15.1431;19.9735;-3.7278;-0.0795;-0.3608;0.0;3.66;22.99;30.79;302.69;-18.65;25.19;0.0;64.013;39.46861;-0.342018;25.3;NaN;2.96;3.7;144.54;13 / 33;9764;2021-10-20 19:29:47:346
13.6481;-19.8641;8.346;-7.7764;-5.9233;-0.7661;-1.7236;-16.0151;-10.5547;-1.3262;-0.3876;-1.1593;0.0;1.14;21.84;31.74;5.24;-57.77;-175.43;0.0;64.013;39.46861;-0.342018;25.3;NaN;2.96;3.7;144.54;13 / 33;9814;2021-10-20 19:29:47:396
10.431;-15.357;-10.998;-7.7428;-5.2577;-2.9353;-19.6651;12.1137;2.5976;-1.3262;-0.3876;-1.1593;0.0;-2.7;22.14;32.1;298.49;37.16;95.63;0.0;64.013;39.46861;-0.342018;25.3;NaN;2.96;3.7;144.54;13 / 33;9864;2021-10-20 19:29:47:446
6.869;-8.885;-4.452;-7.7428;-5.2577;-2.9353;-3.6205;10.0238;8.5057;-0.2824;-0.0426;-1.243;0.0;-2.7;22.14;32.1;298.49;37.16;95.63;0.0;64.013;39.46861;-0.342018;25.3;NaN;2.96;3.7;144.54;13 / 33;9915;2021-10-20 19:29:47:497
5.328;3.875;-2.0681;3.644;-9.0644;-0.8859;-3.6205;10.0238;8.5057;-1.1674;-1.3654;-1.7819;0.0;-4.99;27.06;27.3;298.49;37.16;95.63;0.0;65.767;39.46861;-0.342018;25.3;NaN;2.96;3.7;144.54;13 / 33;9965;2021-10-20 19:29:47:547
5.328;3.875;-2.0681;-9.6822;0.0;-1.5706;-0.6788;-12.502;2.2456;-1.1674;-1.3654;-1.7819;0.0;-4.8;30.06;23.46;321.92;0.0;99.21;0.0;65.767;39.468594;-0.341995;25.3;NaN;4.87;3.7;142.76;13 / 33;10015;2021-10-20 19:29:47:597
-0.837;-0.069;0.38;-3.2896;8.7532;2.9544;6.798;-7.657;-1.3092;0.1787;-3.3122;-3.7172;0.0;-4.8;30.06;23.46;321.92;0.0;99.21;0.0;65.767;39.468594;-0.341995;25.3;NaN;4.87;3.7;142.76;13 / 33;10065;2021-10-20 19:29:47:647
7.367;-2.5061;4.4801;-6.7373;-6.4308;-3.0694;6.798;-7.657;-1.3092;0.1787;-3.3122;-3.7172;0.0;-4.2;29.64;24.19;257.22;-63.2;48.07;0.0;65.767;39.468594;-0.341995;25.3;NaN;4.87;3.7;142.76;13 / 33;10115;2021-10-20 19:29:47:697
18.986;-37.307;-3.7811;-6.7373;-6.4308;-3.0694;-3.3634;6.9339;3.8066;0.527;-1.3443;-0.194;0.0;-4.2;29.64;24.19;257.22;-63.2;48.07;0.0;65.767;39.468594;-0.341995;25.3;NaN;4.87;3.7;142.76;13 / 33;10164;2021-10-20 19:29:47:746
16.817;-8.157;-6.441;-8.5425;-4.2952;-2.1787;-29.0054;16.9274;9.1253;-0.1756;0.0968;1.2368;0.0;-2.46;26.76;27.96;297.96;40.98;114.49;0.0;65.767;39.468594;-0.341995;25.3;NaN;4.87;3.7;142.76;13 / 33;10214;2021-10-20 19:29:47:796
-3.664;-2.9389;5.354;-2.715;-7.2401;-6.0334;-29.0054;16.9274;9.1253;-0.1756;0.0968;1.2368;0.0;-0.49;22.26;32.94;297.96;40.98;114.49;0.0;65.767;39.468594;-0.341995;25.3;NaN;4.87;3.7;142.76;13 / 33;10265;2021-10-20 19:29:47:847
-3.664;-2.9389;5.354;0.0431;8.0589;5.5881;10.7351;-3.641;-7.0882;-0.384;0.4857;0.8775;0.0;-0.49;22.26;32.94;297.96;40.98;114.49;0.0;63.322;39.468594;-0.341995;25.3;NaN;4.87;3.7;142.76;13 / 33;10314;2021-10-20 19:29:47:896
-7.808;0.962;6.869;3.984;5.1763;7.3167;14.7587;-12.8921;-5.175;6.0728;5.2591;5.8597;0.0;2.4;20.89;33.3;186.57;-55.26;-0.44;0.0;63.322;39.468594;-0.341995;25.3;NaN;4.87;3.7;142.76;13 / 33;10364;2021-10-20 19:29:47:946
3.372;-3.884;-3.8171;3.984;5.1763;7.3167;14.7587;-12.8921;-5.175;6.0728;5.2591;5.8597;0.0;3.71;22.99;30.79;186.57;-55.26;-0.44;0.0;63.322;39.468594;-0.341995;25.3;NaN;4.87;3.7;142.76;13 / 33;10414;2021-10-20 19:29:47:996
19.749;-15.6731;-17.571;-8.011;-4.027;-3.9696;-10.4658;15.4346;16.2575;0.2355;3.3158;2.2734;0.0;3.71;22.99;30.79;186.57;-55.26;-0.44;0.0;63.322;39.468594;-0.341995;25.3;NaN;4.87;3.7;142.76;13 / 33;10465;2021-10-20 19:29:48:047
10.6181;2.046;5.0981;-5.1571;8.0158;-2.3128;-10.4658;15.4346;16.2575;0.2355;3.3158;2.2734;0.0;0.71;22.74;31.09;311.16;-54.81;114.15;0.0;63.322;39.468594;-0.341995;25.3;NaN;4.87;3.7;142.76;13 / 33;10515;2021-10-20 19:29:48:097
30.561;-17.6741;-0.615;-8.6287;-4.3144;-1.7621;-8.1421;-11.1019;-2.2626;-1.573;-0.7345;-1.5843;0.0;0.71;22.74;31.09;311.16;-54.81;114.15;0.0;63.322;39.468594;-0.341995;25.3;NaN;4.87;3.7;142.76;13 / 33;10565;2021-10-20 19:29:48:147
30.561;-17.6741;-0.615;-8.6287;-4.3144;-1.7621;-27.3252;8.6495;2.729;-0.6638;-0.4223;-1.5058;0.0;-3.24;22.56;31.8;311.16;-54.81;114.15;0.0;64.323;39.468594;-0.341995;25.3;NaN;4.87;3.7;142.76;13 / 33;10615;2021-10-20 19:29:48:197
10.967;-19.173;-6.405;-8.1738;-4.6783;-2.7294;-3.8973;2.9022;5.0299;-0.6638;-0.4223;-1.5058;0.0;-6.49;26.29;28.14;306.86;28.5;108.47;0.0;64.323;39.468594;-0.341995;25.3;NaN;4.87;3.7;142.76;13 / 33;10664;2021-10-20 19:29:48:246
6.869;6.5891;-3.564;6.3542;-6.6319;-3.4333;-3.8973;2.9022;5.0299;-1.2822;-0.6216;-1.1148;0.0;-6.49;26.29;28.14;306.86;28.5;108.47;0.0;64.323;39.468594;-0.341995;25.3;NaN;4.87;3.7;142.76;13 / 33;10714;2021-10-20 19:29:48:296
-0.45;-0.438;-6.2209;-0.6847;0.7039;-9.7588;4.1391;-8.5948;-0.2843;-0.549;-2.6393;-2.0439;0.0;-6.24;29.29;23.59;61.12;42.56;-118.38;0.0;64.323;39.468594;-0.341995;25.3;NaN;4.87;3.7;142.76;13 / 33;10764;2021-10-20 19:29:48:346
-0.9589;-0.248;-2.07;-1.0534;4.0989;-8.8442;7.5376;-6.6287;-3.8315;-0.549;-2.6393;-2.0439;0.0;-5.04;29.21;23.4;347.83;-24.71;173.21;0.0;64.323;39.468594;-0.341995;25.3;NaN;4.87;3.7;142.76;13 / 33;10815;2021-10-20 19:29:48:397
15.735;-19.6991;-8.246;-7.2832;-5.8179;-3.0454;7.5376;-6.6287;-3.8315;0.6086;-1.2324;-6.6825;0.0;-5.04;29.21;23.4;347.83;-24.71;173.21;0.0;64.323;39.468594;-0.341995;25.3;NaN;4.87;3.7;142.76;13 / 33;10864;2021-10-20 19:29:48:446
15.735;-19.6991;-8.246;-7.2832;-5.8179;-3.0454;-7.2825;14.9469;6.7439;0.6086;-1.2324;-6.6825;0.0;-3.84;26.64;26.76;347.83;-24.71;173.21;0.0;64.446;39.468594;-0.341995;25.3;NaN;4.87;3.7;142.76;13 / 33;10914;2021-10-20 19:29:48:496
34.0751;-30.217;-10.9309;-6.3255;-7.1347;-2.2889;-26.18;24.5634;9.4669;-0.5644;0.7124;2.1863;0.0;-3.84;26.64;26.76;347.83;-24.71;173.21;0.0;64.446;39.468594;-0.341995;25.3;NaN;4.87;3.7;142.76;13 / 33;10964;2021-10-20 19:29:48:546
2.12;2.2211;0.174;3.2465;4.2904;8.2025;-26.18;24.5634;9.4669;-0.4192;0.0404;0.8309;0.0;-2.64;21.49;31.14;286.23;46.69;109.89;0.0;64.446;39.468582;-0.341975;25.2;NaN;5.36;3.6;127.42;14 / 33;11014;2021-10-20 19:29:48:596
-12.099;0.749;9.191;0.5315;7.4843;6.3159;10.0924;-8.1494;-6.6094;-0.4192;0.0404;0.8309;0.0;0.11;19.56;32.29;67.11;-25.94;-21.59;0.0;64.446;39.468582;-0.341975;25.2;NaN;5.36;3.6;127.42;14 / 33;11065;2021-10-20 19:29:48:647
-1.821;3.468;7.7051;-7.8626;-5.2529;-2.6097;19.1231;-9.1673;-6.1965;0.1121;2.1696;1.0418;0.0;0.11;19.56;32.29;67.11;-25.94;-21.59;0.0;64.446;39.468582;-0.341975;25.2;NaN;5.36;3.6;127.42;14 / 33;11114;2021-10-20 19:29:48:696
12.92;-19.017;-6.8239;-7.8626;-5.2529;-2.6097;-7.3028;1.4992;12.3233;4.1375;4.0007;5.3233;0.0;3.9;21.36;30.54;290.4;32.38;108.36;0.0;64.446;39.468582;-0.341975;25.2;NaN;5.36;3.6;127.42;14 / 33;11165;2021-10-20 19:29:48:747
-1.517;-13.971;17.5931;-6.5697;-3.4046;-6.4404;-7.3028;1.4992;12.3233;4.1375;4.0007;5.3233;0.0;4.14;21.36;30.36;301.51;20.31;134.43;0.0;64.446;39.468582;-0.341975;25.2;NaN;5.36;3.6;127.42;14 / 33;11214;2021-10-20 19:29:48:796
-1.517;-13.971;17.5931;-0.838;8.0445;-5.545;-15.7885;2.4603;-11.8593;-1.203;-0.2614;-1.374;0.0;4.14;21.36;30.36;301.51;20.31;134.43;0.0;65.362;39.468582;-0.341975;25.2;NaN;5.36;3.6;127.42;14 / 33;11265;2021-10-20 19:29:48:847
12.353;-22.6361;1.8311;-6.5218;-7.3215;0.1915;-9.5787;13.5591;0.7016;-1.203;-0.2614;-1.374;0.0;1.44;20.29;32.29;354.23;-55.12;171.41;0.0;65.362;39.468582;-0.341975;25.2;NaN;5.36;3.6;127.42;14 / 33;11315;2021-10-20 19:29:48:897
10.295;-12.808;-8.449;-6.5218;-7.3215;0.1915;-9.5787;13.5591;0.7016;-0.8965;-0.5197;-1.3313;0.0;1.44;20.29;32.29;354.23;-55.12;171.41;0.0;65.362;39.468582;-0.341975;25.2;NaN;5.36;3.6;127.42;14 / 33;11365;2021-10-20 19:29:48:947
8.372;-5.9051;-1.2371;-8.2361;-4.4772;-2.8826;-10.4209;8.2762;9.9555;-1.5441;-1.0884;-1.177;0.0;-1.74;22.44;30.36;299.29;48.29;88.32;0.0;65.362;39.468582;-0.341975;25.2;NaN;5.36;3.6;127.42;14 / 33;11414;2021-10-20 19:29:48:996
4.0061;2.714;-1.539;5.2433;-7.7476;-2.9497;-1.4736;-16.6278;4.589;-1.5441;-1.0884;-1.177;0.0;-2.59;27.11;26.04;299.29;48.29;88.32;0.0;65.362;39.468582;-0.341975;25.2;NaN;5.36;3.6;127.42;14 / 33;11465;2021-10-20 19:29:49:047
-1.3849;0.2051;0.086;1.4365;9.6822;0.5746;-1.4736;-16.6278;4.589;-1.0088;-2.1817;-2.2111;0.0;-2.59;27.11;26.04;299.29;48.29;88.32;0.0;65.362;39.468582;-0.341975;25.2;NaN;5.36;3.6;127.42;14 / 33;11515;2021-10-20 19:29:49:097
-1.3849;0.2051;0.086;1.4365;9.6822;0.5746;8.0425;-7.3441;-0.9463;0.3053;-2.3508;-6.0534;0.0;-1.86;28.86;24.24;95.93;-80.92;-68.2;0.0;65.463;39.468582;-0.341975;25.2;NaN;5.36;3.6;127.42;14 / 33;11565;2021-10-20 19:29:49:147
9.485;-3.6191;2.537;-3.3854;-8.8921;2.375;-0.9253;-0.9417;-4.0432;0.3053;-2.3508;-6.0534;0.0;-0.24;27.49;25.2;320.02;65.06;54.95;0.0;65.463;39.468582;-0.341975;25.2;NaN;5.36;3.6;127.42;14 / 33;11614;2021-10-20 19:29:49:196
24.534;-43.344;-8.2361;-8.4228;-4.7645;-1.5993;-16.3861;38.1407;6.5502;0.0516;-0.1675;1.5071;0.0;-0.24;27.49;25.2;320.02;65.06;54.95;0.0;65.463;39.468582;-0.341975;25.2;NaN;5.36;3.6;127.42;14 / 33;11664;2021-10-20 19:29:49:246
6.984;-5.1551;-5.3111;-4.9704;-6.7325;-5.114;-16.3861;38.1407;6.5502;0.0798;-0.2258;0.7741;0.0;-0.19;23.21;28.86;320.02;65.06;54.95;0.0;65.463;39.468582;-0.341975;25.2;NaN;5.36;3.6;127.42;14 / 33;11715;2021-10-20 19:29:49:297
-6.1061;-0.916;5.1311;-1.1157;7.4651;6.2632;6.5169;-6.491;0.6679;0.0798;-0.2258;0.7741;0.0;-0.19;23.21;28.86;320.02;65.06;54.95;0.0;65.463;39.468582;-0.341975;25.2;NaN;5.36;3.6;127.42;14 / 33;11765;2021-10-20 19:29:49:347
-10.254;0.789;5.459;0.656;8.6383;4.5969;19.7349;-3.9027;-10.0655;-0.4058;0.8023;1.1766;0.0;0.9;20.04;31.09;212.39;-49.56;10.1;0.0;65.463;39.468582;-0.341975;25.2;NaN;5.36;3.6;127.42;14 / 33;11814;2021-10-20 19:29:49:396
-10.254;0.789;5.459;0.656;8.6383;4.5969;14.0526;-10.1579;-6.894;-0.4058;0.8023;1.1766;0.0;3.9;20.81;30.36;179.05;-61.74;-8.12;0.0;63.686;39.468582;-0.341975;25.2;NaN;5.36;3.6;127.42;14 / 33;11864;2021-10-20 19:29:49:446
10.163;-5.1671;-7.755;-3.6727;-7.2305;-5.5162;-12.0131;5.7942;10.9206;5.4806;4.8344;6.4562;0.0;3.9;20.81;30.36;179.05;-61.74;-8.12;0.0;63.686;39.468582;-0.341975;25.2;NaN;5.36;3.6;127.42;14 / 33;11915;2021-10-20 19:29:49:497
15.699;9.6221;22.746;3.2226;-5.2625;7.6279;-12.0131;5.7942;10.9206;-0.3069;-0.2821;-2.3565;0.0;3.96;22.14;29.04;179.05;-61.74;-8.12;0.0;63.686;39.468582;-0.341975;25.2;NaN;5.36;3.6;127.42;14 / 33;11965;2021-10-20 19:29:49:547
13.794;-15.3761;9.356;-6.6511;-5.9663;4.0462;24.4768;21.0985;7.4876;-0.3069;-0.2821;-2.3565;0.0;0.66;19.99;30.36;313.53;37.47;58.69;0.0;63.686;39.468563;-0.341943;25.2;NaN;5.83;3.6;126.59;14 / 33;12014;2021-10-20 19:29:49:596
13.2941;-19.321;-5.4881;-7.8673;-5.4157;-2.2314;-11.9374;12.7851;6.0676;-1.4044;-1.011;-1.4105;0.0;0.66;19.99;30.36;313.53;37.47;58.69;0.0;63.686;39.468563;-0.341943;25.2;NaN;5.83;3.6;126.59;14 / 33;12065;2021-10-20 19:29:49:647
2.372;-11.477;-5.172;-8.7867;-1.8148;-3.9552;-7.3969;5.2216;6.705;-1.5713;-0.2879;-0.1742;0.0;-1.44;20.29;30.49;313.53;37.47;58.69;0.0;63.686;39.468563;-0.341943;25.2;NaN;5.83;3.6;126.59;14 / 33;12115;2021-10-20 19:29:49:697
2.372;-11.477;-5.172;-8.7867;-1.8148;-3.9552;-7.3969;5.2216;6.705;-1.5713;-0.2879;-0.1742;0.0;-1.44;20.29;30.49;313.53;37.47;58.69;0.0;63.686;39.468563;-0.341943;25.2;NaN;5.83;3.6;126.59;14 / 33;12164;2021-10-20 19:29:49:746
8.36;2.238;-4.315;2.2697;-8.4803;-4.3718;-3.3854;-10.6647;4.9742;-1.4057;-1.2925;-1.1115;0.0;1.14;25.26;25.8;118.54;59.85;-152.56;0.0;64.646;39.468563;-0.341943;25.2;NaN;5.83;3.6;126.59;14 / 33;12215;2021-10-20 19:29:49:797
0.1841;1.6271;-3.0011;4.6591;-0.5076;-8.6143;-3.3854;-10.6647;4.9742;-1.4057;-1.2925;-1.1115;0.0;3.36;27.11;22.56;27.59;2.97;-151.59;0.0;64.646;39.468563;-0.341943;25.2;NaN;5.83;3.6;126.59;14 / 33;12265;2021-10-20 19:29:49:847
-0.868;-1.541;-2.113;-5.4875;3.0598;-7.5274;6.9493;-6.1993;-2.6431;-0.063;-2.2898;-3.1505;0.0;3.36;27.11;22.56;27.59;2.97;-151.59;0.0;64.646;39.468563;-0.341943;25.2;NaN;5.83;3.6;126.59;14 / 33;12314;2021-10-20 19:29:49:896
13.713;-26.643;-4.902;-8.6096;-4.4245;-1.5802;2.2963;8.9944;6.0306;0.406;-0.777;0.8144;0.0;4.01;26.16;23.34;341.72;-18.18;143.91;0.0;64.646;39.468563;-0.341943;25.2;NaN;5.83;3.6;126.59;14 / 33;12365;2021-10-20 19:29:49:947
21.9971;-23.3569;-11.958;-6.6894;-6.3015;-3.4237;-7.925;35.0016;9.5545;0.406;-0.777;0.8144;0.0;4.8;22.61;26.16;288.92;39.98;117.1;0.0;64.646;39.468563;-0.341943;25.2;NaN;5.83;3.6;126.59;14 / 33;12415;2021-10-20 19:29:49:997
1.1561;2.8721;3.1691;6.359;-2.5426;7.0246;-7.925;35.0016;9.5545;-0.169;-0.4282;1.8197;0.0;4.8;22.61;26.16;288.92;39.98;117.1;0.0;64.646;39.468563;-0.341943;25.2;NaN;5.83;3.6;126.59;14 / 33;12465;2021-10-20 19:29:50:047
1.1561;2.8721;3.1691;6.359;-2.5426;7.0246;5.3182;-10.092;-4.6131;-0.1539;-0.143;1.0047;0.0;6.54;19.91;27.79;27.69;15.02;-42.15;0.0;64.646;39.468563;-0.341943;25.2;NaN;5.83;3.6;126.59;14 / 33;12514;2021-10-20 19:29:50:096
-10.9931;1.256;7.6061;0.9146;8.0302;5.5545;16.8944;-8.9487;-9.0508;-0.1539;-0.143;1.0047;0.0;6.54;19.91;27.79;27.69;15.02;-42.15;0.0;64.52;39.468563;-0.341943;25.2;NaN;5.83;3.6;126.59;14 / 33;12564;2021-10-20 19:29:50:146
-2.094;-0.689;6.563;-0.9673;2.9592;9.2991;-3.9415;-4.252;9.8982;0.9538;2.0967;1.8321;0.0;8.7;19.99;26.59;201.29;-54.97;-9.35;0.0;64.52;39.468563;-0.341943;25.2;NaN;5.83;3.6;126.59;14 / 33;12614;2021-10-20 19:29:50:196
9.074;-24.372;-22.835;-6.9049;-2.5714;-6.4691;-3.9415;-4.252;9.8982;0.9538;2.0967;1.8321;0.0;8.04;21.49;24.84;201.29;-54.97;-9.35;0.0;64.52;39.468563;-0.341943;25.2;NaN;5.83;3.6;126.59;14 / 33;12665;2021-10-20 19:29:50:247
-27.555;1.634;-21.468;0.4549;7.7285;-6.019;2.4171;-3.5405;-26.4418;-2.1974;2.5972;1.8805;0.0;8.04;21.49;24.84;201.29;-54.97;-9.35;0.0;64.52;39.468563;-0.341943;25.2;NaN;5.83;3.6;126.59;14 / 33;12715;2021-10-20 19:29:50:297
-27.555;1.634;-21.468;0.4549;7.7285;-6.019;2.4171;-3.5405;-26.4418;-1.3689;-0.3076;-0.7076;0.0;5.64;21.06;25.86;13.53;-52.01;-175.68;0.0;64.52;39.468563;-0.341943;25.2;NaN;5.83;3.6;126.59;14 / 33;12765;2021-10-20 19:29:50:347
27.675;-30.597;-3.741;-7.2449;-6.5505;-0.8859;-15.6953;24.445;8.4022;-1.3689;-0.3076;-0.7076;0.0;5.46;22.14;24.79;294.5;41.91;96.97;0.0;64.52;39.468563;-0.341943;25.2;NaN;5.83;3.6;126.59;14 / 33;12815;2021-10-20 19:29:50:397
2.8811;-18.531;-7.255;-8.4132;-3.5913;-3.5434;-0.2582;9.2007;8.7988;-0.518;0.066;-0.5508;0.0;5.46;22.14;24.79;294.5;41.91;96.97;0.0;65.589;39.468563;-0.341943;25.2;NaN;5.83;3.6;126.59;14 / 33;12864;2021-10-20 19:29:50:446
6.5921;1.95;-0.962;2.9018;-6.8714;-6.3686;-3.5481;-11.2495;1.6334;-1.3123;-1.3241;-0.9311;0.0;7.5;26.21;19.2;294.5;41.91;96.97;0.0;65.589;39.468563;-0.341943;25.2;NaN;5.83;3.6;126.59;14 / 33;12914;2021-10-20 19:29:50:496
0.126;-4.631;0.995;2.9018;-6.8714;-6.3686;-3.5481;-11.2495;1.6334;-1.3123;-1.3241;-0.9311;0.0;7.5;26.21;19.2;294.5;41.91;96.97;0.0;65.589;39.468563;-0.341943;25.2;NaN;5.83;3.6;126.59;14 / 33;12964;2021-10-20 19:29:50:546
0.4091;4.5521;3.305;-3.4429;6.8426;-6.1244;5.9411;-7.922;0.9617;-0.7157;-2.8517;-1.8528;0.0;9.0;27.19;16.14;51.77;44.47;-155.5;0.0;65.589;39.46853;-0.341917;25.3;NaN;6.6;3.5;123.58;14 / 33;13014;2021-10-20 19:29:50:596
7.1351;-19.484;-4.1479;-6.6511;-7.2018;0.2873;5.1488;-9.4881;-4.4743;0.3509;-1.4095;-4.3127;0.0;8.16;26.81;17.46;51.77;44.47;-155.5;0.0;65.589;39.46853;-0.341917;25.3;NaN;6.6;3.5;123.58;14 / 33;13065;2021-10-20 19:29:50:647
7.1351;-19.484;-4.1479;-8.9064;-3.5578;-2.0494;5.1488;-9.4881;-4.4743;0.3509;-1.4095;-4.3127;0.0;8.16;26.81;17.46;51.77;44.47;-155.5;0.0;65.589;39.46853;-0.341917;25.3;NaN;6.6;3.5;123.58;14 / 33;13115;2021-10-20 19:29:50:697
11.319;-34.3841;-9.081;-6.0238;-7.2879;-2.6097;-10.4496;33.9599;7.9515;0.2189;-0.3257;1.2752;0.0;4.8;24.24;21.36;314.32;21.27;102.96;0.0;65.589;39.46853;-0.341917;25.3;NaN;6.6;3.5;123.58;14 / 33;13165;2021-10-20 19:29:50:747
1.7591;-2.06;-2.731;-6.0238;-7.2879;-2.6097;3.7648;-5.8692;1.033;0.2189;-0.3257;1.2752;0.0;3.41;19.99;25.99;279.18;47.99;113.42;0.0;64.394;39.46853;-0.341917;25.3;NaN;6.6;3.5;123.58;14 / 33;13214;2021-10-20 19:29:50:796
-2.139;1.668;5.7251;-8.7724;-0.5985;4.3479;7.3055;-9.805;-7.4974;-0.4008;0.027;0.8059;0.0;3.41;19.99;25.99;279.18;47.99;113.42;0.0;64.394;39.46853;-0.341917;25.3;NaN;6.6;3.5;123.58;14 / 33;13265;2021-10-20 19:29:50:847
-6.75;3.305;8.574;3.3519;8.6143;3.2801;7.3055;-9.805;-7.4974;0.1151;2.3199;1.3344;0.0;5.76;18.96;27.54;126.91;-61.44;-45.62;0.0;64.394;39.46853;-0.341917;25.3;NaN;6.6;3.5;123.58;14 / 33;13315;2021-10-20 19:29:50:897
6.785;-13.662;-6.079;-3.3471;-8.9304;-2.2936;10.913;-12.1708;-8.4513;0.1151;2.3199;1.3344;0.0;5.76;18.96;27.54;126.91;-61.44;-45.62;0.0;64.394;39.46853;-0.341917;25.3;NaN;6.6;3.5;123.58;14 / 33;13365;2021-10-20 19:29:50:947
6.785;-13.662;-6.079;-7.8961;1.4222;-5.6407;10.8811;8.2313;22.5245;3.5402;2.6799;-0.2633;0.0;8.16;19.91;26.16;236.7;65.57;124.42;0.0;64.394;39.46853;-0.341917;25.3;NaN;6.6;3.5;123.58;14 / 33;13415;2021-10-20 19:29:50:997
3.564;-7.006;29.8721;-8.6383;-3.6152;2.9113;7.6071;-8.7491;12.4556;-2.5179;0.4359;0.0978;0.0;10.26;19.09;25.44;326.66;-8.34;125.54;0.0;64.394;39.46853;-0.341917;25.3;NaN;6.6;3.5;123.58;14 / 33;13464;2021-10-20 19:29:51:046
18.423;-22.8229;11.0531;-8.6383;-3.6152;2.9113;7.6071;-8.7491;12.4556;-2.5179;0.4359;0.0978;0.0;10.26;19.09;25.44;326.66;-8.34;125.54;0.0;68.497;39.46853;-0.341917;25.3;NaN;6.6;3.5;123.58;14 / 33;13514;2021-10-20 19:29:51:096
-11.975;-22.978;-26.866;-9.7252;-1.1684;-0.5124;-0.9626;7.7225;2.2973;-0.8134;-0.4518;-0.6978;0.0;11.4;18.71;24.6;326.66;-8.34;125.54;0.0;68.497;39.46853;-0.341917;25.3;NaN;6.6;3.5;123.58;14 / 33;13565;2021-10-20 19:29:51:147
7.2881;-10.563;2.0411;-8.1163;-4.1611;-3.6009;-5.7974;4.8055;7.1449;-0.8134;-0.4518;-0.6978;0.0;9.6;21.49;21.79;305.26;25.11;113.92;0.0;68.497;39.46853;-0.341917;25.3;NaN;6.6;3.5;123.58;14 / 33;13615;2021-10-20 19:29:51:197
8.3801;4.1141;-6.063;4.6591;-6.1579;-6.0478;-6.8923;-16.5186;8.902;-0.879;-1.09;-1.128;0.0;9.6;21.49;21.79;305.26;25.11;113.92;0.0;68.497;39.46853;-0.341917;25.3;NaN;6.6;3.5;123.58;14 / 33;13664;2021-10-20 19:29:51:246
8.3801;4.1141;-6.063;-2.4373;8.7771;-3.6344;-6.8923;-16.5186;8.902;-1.6797;-2.7522;-1.6474;0.0;7.91;24.36;19.09;55.56;38.89;-142.39;0.0;68.497;39.46853;-0.341917;25.3;NaN;6.6;3.5;123.58;14 / 33;13714;2021-10-20 19:29:51:296
-4.535;2.496;-3.288;8.4372;4.9512;0.7087;9.5397;-7.4081;1.264;-1.6797;-2.7522;-1.6474;0.0;7.91;24.36;19.09;55.56;38.89;-142.39;0.0;68.497;39.46853;-0.341917;25.3;NaN;6.6;3.5;123.58;14 / 33;13764;2021-10-20 19:29:51:346
6.462;-3.939;-2.7431;8.4372;4.9512;0.7087;12.0566;-17.4865;-3.9504;-3.7584;-2.8227;-8.8109;0.0;6.3;24.66;18.96;46.06;-30.32;-85.2;0.0;66.095;39.46853;-0.341917;25.3;NaN;6.6;3.5;123.58;14 / 33;13814;2021-10-20 19:29:51:396
2.877;-43.085;-17.5901;-9.6438;-1.7765;-0.2969;3.2755;36.3147;14.0385;0.4052;0.7101;3.0284;0.0;4.91;21.66;22.86;312.06;10.43;91.76;0.0;66.095;39.46853;-0.341917;25.3;NaN;6.6;3.5;123.58;14 / 33;13864;2021-10-20 19:29:51:446
2.477;-9.201;-2.802;-9.0884;-2.4373;-2.7629;3.2755;36.3147;14.0385;0.4052;0.7101;3.0284;0.0;4.91;21.66;22.86;312.06;10.43;91.76;0.0;66.095;39.46853;-0.341917;25.3;NaN;6.6;3.5;123.58;14 / 33;13914;2021-10-20 19:29:51:496
-2.53;-1.3639;4.512;-2.4995;4.6256;8.2791;2.7989;1.5361;-0.3414;0.1658;1.1725;1.8827;0.0;5.81;15.96;29.04;294.73;14.39;106.91;0.0;66.095;39.46853;-0.341917;25.3;NaN;6.6;3.5;123.58;14 / 33;13965;2021-10-20 19:29:51:547
-6.2471;-7.695;12.4541;-2.4995;4.6256;8.2791;11.8191;-14.5847;-7.4662;1.1279;2.5504;2.0961;0.0;6.41;13.01;31.86;294.73;14.39;106.91;0.0;66.095;39.468517;-0.341885;25.3;NaN;7.43;3.4;124.19;14 / 33;14014;2021-10-20 19:29:51:596
-6.2471;-7.695;12.4541;-6.8139;6.8953;1.494;11.8191;-14.5847;-7.4662;1.1279;2.5504;2.0961;0.0;6.41;13.01;31.86;294.73;14.39;106.91;0.0;66.095;39.468517;-0.341885;25.3;NaN;7.43;3.4;124.19;14 / 33;14064;2021-10-20 19:29:51:646
12.767;-3.683;-9.3731;-7.6423;-5.454;-2.8299;4.24;-11.3408;11.7709;4.6498;2.5396;4.4375;0.0;6.0;15.71;30.36;289.75;-44.67;77.63;0.0;66.095;39.468517;-0.341885;25.3;NaN;7.43;3.4;124.19;14 / 33;14114;2021-10-20 19:29:51:696
-11.872;-10.982;12.729;-1.8579;6.1435;7.4124;-14.8328;6.6095;35.6261;4.6498;2.5396;4.4375;0.0;6.0;15.71;30.36;289.75;-44.67;77.63;0.0;68.345;39.468517;-0.341885;25.3;NaN;7.43;3.4;124.19;14 / 33;14165;2021-10-20 19:29:51:747
-1.3811;-30.6521;4.406;-9.3901;-2.4038;-1.4988;10.2091;1.9426;-4.9388;-1.1668;1.6067;0.9739;0.0;4.31;17.51;30.66;249.79;-38.8;14.07;0.0;68.345;39.468517;-0.341885;25.3;NaN;7.43;3.4;124.19;14 / 33;14214;2021-10-20 19:29:51:796
18.914;-4.863;-7.9099;-9.3901;-2.4038;-1.4988;10.2091;1.9426;-4.9388;-0.5398;0.8456;0.11;0.0;2.51;16.99;32.64;249.79;-38.8;14.07;0.0;68.345;39.468517;-0.341885;25.3;NaN;7.43;3.4;124.19;14 / 33;14265;2021-10-20 19:29:51:847
7.334;-2.113;-5.9239;-9.5864;-1.7813;1.0582;-18.2456;-4.9182;8.1725;-0.5398;0.8456;0.11;0.0;2.51;16.99;32.64;249.79;-38.8;14.07;0.0;68.345;39.468517;-0.341885;25.3;NaN;7.43;3.4;124.19;14 / 33;14315;2021-10-20 19:29:51:897
7.334;-2.113;-5.9239;-4.1946;-8.4324;-2.7294;-6.4163;-7.6491;6.1891;-0.91;0.0095;-1.1828;0.0;2.76;19.01;31.5;300.3;10.46;83.7;0.0;68.345;39.468517;-0.341885;25.3;NaN;7.43;3.4;124.19;14 / 33;14364;2021-10-20 19:29:51:946
4.109;3.906;-2.819;-2.3559;-7.6902;-5.6072;-1.9887;-13.4641;2.4124;-0.7298;-1.3269;-2.9421;0.0;3.84;21.36;30.24;218.76;51.66;157.21;0.0;68.345;39.468517;-0.341885;25.3;NaN;7.43;3.4;124.19;14 / 33;14415;2021-10-20 19:29:51:997
-0.476;2.771;-1.194;9.7827;-0.0431;-0.6752;4.3035;-11.7115;0.0102;-0.7298;-1.3269;-2.9421;0.0;3.84;21.36;30.24;218.76;51.66;157.21;0.0;65.591;39.468517;-0.341885;25.3;NaN;7.43;3.4;124.19;14 / 33;14465;2021-10-20 19:29:52:047
-0.059;-4.492;0.591;9.7827;-0.0431;-0.6752;4.3035;-11.7115;0.0102;-0.587;-1.7619;-7.5911;0.0;3.96;21.36;31.39;56.05;0.25;-93.95;0.0;65.591;39.468517;-0.341885;25.3;NaN;7.43;3.4;124.19;14 / 33;14514;2021-10-20 19:29:52:096
0.198;-41.094;0.4541;-9.4858;2.466;-0.34;7.058;-2.0489;-2.7026;-0.587;-1.7619;-7.5911;0.0;3.96;21.36;31.39;56.05;0.25;-93.95;0.0;65.591;39.468517;-0.341885;25.3;NaN;7.43;3.4;124.19;14 / 33;14564;2021-10-20 19:29:52:146
-1.184;-25.571;-1.845;-9.6774;0.2682;-1.5706;2.7855;34.0451;7.9084;0.5075;2.6612;4.324;0.0;3.36;19.74;33.06;56.05;0.25;-93.95;0.0;65.591;39.468517;-0.341885;25.3;NaN;7.43;3.4;124.19;14 / 33;14615;2021-10-20 19:29:52:197
-1.184;-25.571;-1.845;-4.5107;-6.7852;-5.4588;3.6799;2.6131;2.9521;-0.1371;1.4858;2.6725;0.0;1.26;16.69;35.1;296.54;-1.57;99.22;0.0;65.591;39.468517;-0.341885;25.3;NaN;7.43;3.4;124.19;14 / 33;14665;2021-10-20 19:29:52:247
4.569;3.092;-2.362;9.1698;1.0534;3.3136;3.6799;2.6131;2.9521;-0.1371;1.4858;2.6725;0.0;1.26;16.69;35.1;296.54;-1.57;99.22;0.0;65.591;39.468517;-0.341885;25.3;NaN;7.43;3.4;124.19;14 / 33;14715;2021-10-20 19:29:52:297
-0.495;3.501;1.505;9.1698;1.0534;3.3136;3.1567;-13.3954;-2.5684;-0.6953;0.6475;1.2726;0.0;1.26;14.51;36.6;68.66;-6.17;-70.13;0.0;63.224;39.468517;-0.341885;25.3;NaN;7.43;3.4;124.19;14 / 33;14765;2021-10-20 19:29:52:347
-5.093;1.974;0.2681;2.8299;9.2943;-1.3647;14.6914;-14.3189;1.3797;2.7882;1.0792;11.8036;0.0;4.61;14.64;36.49;66.07;-71.32;-115.74;0.0;63.224;39.468517;-0.341885;25.3;NaN;7.43;3.4;124.19;14 / 33;14814;2021-10-20 19:29:52:396
6.8381;-15.204;-5.96;-7.5178;-5.0661;-3.7493;-12.0765;6.9149;5.6802;2.7882;1.0792;11.8036;0.0;4.61;14.64;36.49;66.07;-71.32;-115.74;0.0;63.224;39.468517;-0.341885;25.3;NaN;7.43;3.4;124.19;14 / 33;14865;2021-10-20 19:29:52:447
-2.199;-16.9271;-3.336;-4.0941;8.8729;0.8475;-12.0765;6.9149;5.6802;2.7882;1.0792;11.8036;0.0;11.04;13.99;35.94;66.07;-71.32;-115.74;0.0;63.224;39.468517;-0.341885;25.3;NaN;7.43;3.4;124.19;14 / 33;14915;2021-10-20 19:29:52:497
-2.199;-16.9271;-3.336;-9.3087;-2.0111;-2.3415;-3.5133;8.9721;2.6182;2.7882;1.0792;11.8036;0.0;11.04;13.99;35.94;66.07;-71.32;-115.74;0.0;63.224;39.46851;-0.341868;25.4;NaN;5.14;3.4;157.38;14 / 33;14965;2021-10-20 19:29:52:547
3.4871;-21.8681;-4.547;-9.7683;-0.2681;-0.8236;-5.8784;9.5455;0.1044;-1.1401;-1.4847;-3.3518;0.0;19.26;12.79;33.54;284.34;11.83;104.12;0.0;63.224;39.46851;-0.341868;25.4;NaN;5.14;3.4;157.38;14 / 33;15014;2021-10-20 19:29:52:596
-4.71;-14.955;-3.8959;-9.7683;-0.2681;-0.8236;1.6076;5.6813;2.9666;-0.844;-1.7663;-2.0245;0.0;22.74;13.69;29.4;296.26;1.57;94.82;0.0;63.825;39.46851;-0.341868;25.4;NaN;5.14;3.4;157.38;14 / 33;15064;2021-10-20 19:29:52:646
2.2211;-1.493;-3.185;-5.1571;1.6424;-8.1786;-4.4323;-8.0514;2.6556;-0.844;-1.7663;-2.0245;0.0;22.74;13.69;29.4;296.26;1.57;94.82;0.0;63.825;39.46851;-0.341868;25.4;NaN;5.14;3.4;157.38;14 / 33;15115;2021-10-20 19:29:52:697
0.141;-1.5859;-2.082;-4.5059;-1.6233;-8.5569;-4.4323;-8.0514;2.6556;-1.0241;-1.9693;-2.0771;0.0;23.1;17.16;25.74;13.95;-9.64;147.77;0.0;63.825;39.46851;-0.341868;25.4;NaN;5.14;3.4;157.38;14 / 33;15165;2021-10-20 19:29:52:747
-0.335;-4.152;0.521;8.3318;3.213;-4.0558;-1.6489;-7.9251;0.1897;-3.3008;-2.8827;-1.3967;0.0;22.14;19.74;24.6;13.95;-9.64;147.77;0.0;63.825;39.46851;-0.341868;25.4;NaN;5.14;3.4;157.38;14 / 33;15215;2021-10-20 19:29:52:797
1.931;-29.824;-4.77;-9.6678;-0.6225;-1.5467;-1.0929;6.0849;-10.4775;-3.3008;-2.8827;-1.3967;0.0;22.14;19.74;24.6;13.95;-9.64;147.77;0.0;63.825;39.46851;-0.341868;25.4;NaN;5.14;3.4;157.38;14 / 33;15265;2021-10-20 19:29:52:847
1.931;-29.824;-4.77;-9.6678;-0.6225;-1.5467;3.6091;25.0969;5.9765;1.6104;-0.0716;-0.0373;0.0;20.51;18.41;26.4;306.24;3.64;99.09;0.0;63.825;39.46851;-0.341868;25.4;NaN;5.14;3.4;157.38;14 / 33;15314;2021-10-20 19:29:52:896
0.864;-21.3649;-9.677;-8.9256;-0.3591;-4.0414;3.6091;25.0969;5.9765;0.5743;-0.1528;-0.012;0.0;20.51;18.41;26.4;306.24;3.64;99.09;0.0;63.825;39.46851;-0.341868;25.4;NaN;5.14;3.4;157.38;14 / 33;15364;2021-10-20 19:29:52:946
2.9051;-6.1541;-4.43;-7.4316;-3.5099;-5.3534;-1.6075;1.6209;0.6285;0.5743;-0.1528;-0.012;0.0;19.5;15.71;28.99;306.24;3.64;99.09;0.0;64.208;39.46851;-0.341868;25.4;NaN;5.14;3.4;157.38;14 / 33;15415;2021-10-20 19:29:52:997
-6.8171;10.17;0.026;8.1451;5.4588;0.0096;2.588;-11.2767;-4.924;-0.2102;-0.0349;0.1107;0.0;17.64;14.81;30.84;85.53;-33.83;-89.93;0.0;64.208;39.46851;-0.341868;25.4;NaN;5.14;3.4;157.38;14 / 33;15465;2021-10-20 19:29:53:047
3.396;-1.536;-0.61;-3.9744;-8.8298;-1.561;2.3126;-3.3757;-9.9789;-0.2102;-0.0349;0.1107;0.0;17.64;14.81;30.84;85.53;-33.83;-89.93;0.0;64.208;39.46851;-0.341868;25.4;NaN;5.14;3.4;157.38;14 / 33;15514;2021-10-20 19:29:53:096
3.396;-1.536;-0.61;-3.9744;-8.8298;-1.561;2.3126;-3.3757;-9.9789;6.3088;1.2811;4.2353;0.0;16.8;15.36;31.09;231.64;64.19;111.44;0.0;64.208;39.46851;-0.341868;25.4;NaN;5.14;3.4;157.38;14 / 33;15564;2021-10-20 19:29:53:146
-2.467;-9.655;-8.332;-7.2879;1.8627;-6.292;-5.0335;-3.7197;2.0517;5.0955;1.418;4.7405;0.0;15.84;16.26;30.6;329.24;-10.95;130.81;0.0;64.208;39.46851;-0.341868;25.4;NaN;5.14;3.4;157.38;14 / 33;15614;2021-10-20 19:29:53:196
-2.8841;-19.95;-12.1451;-9.7348;-0.8667;-0.7997;-2.8206;12.5486;15.1536;5.0955;1.418;4.7405;0.0;15.84;16.26;30.6;329.24;-10.95;130.81;0.0;64.208;39.46851;-0.341868;25.4;NaN;5.14;3.4;157.38;14 / 33;15665;2021-10-20 19:29:53:247
-1.692;-35.8421;-3.8201;-9.7348;-0.8667;-0.7997;-2.8206;12.5486;15.1536;-2.0366;0.5754;-2.1043;0.0;16.01;16.61;30.3;298.16;5.07;94.7;0.0;66.988;39.46851;-0.341868;25.4;NaN;5.14;3.4;157.38;14 / 33;15715;2021-10-20 19:29:53:297
1.73;-18.756;2.8481;-9.7444;1.0391;-0.4022;-0.3057;17.9563;9.7001;-1.0219;0.2347;-1.6107;0.0;16.01;16.61;30.3;298.16;5.07;94.7;0.0;66.988;39.46851;-0.341868;25.4;NaN;5.14;3.4;157.38;14 / 33;15765;2021-10-20 19:29:53:347
-3.164;-2.336;-5.232;-6.948;1.7478;-6.699;-0.3695;2.4474;11.9013;-1.0219;0.2347;-1.6107;0.0;18.54;17.21;28.56;298.16;5.07;94.7;0.0;66.988;39.46851;-0.341868;25.4;NaN;5.14;3.4;157.38;14 / 33;15815;2021-10-20 19:29:53:397
-4.617;-2.092;3.971;8.5281;-4.8028;-0.6321;-7.4176;-18.4894;0.3991;-1.7886;-0.4726;-1.5432;0.0;18.54;19.86;26.04;46.68;29.32;-94.24;0.0;66.988;39.46851;-0.341868;25.4;NaN;5.14;3.4;157.38;14 / 33;15865;2021-10-20 19:29:53:447
-4.617;-2.092;3.971;5.8275;-2.1931;-7.5753;-7.4176;-18.4894;0.3991;-1.7886;-0.4726;-1.5432;0.0;18.54;19.86;26.04;46.68;29.32;-94.24;0.0;66.988;39.46851;-0.341868;25.4;NaN;5.14;3.4;157.38;14 / 33;15915;2021-10-20 19:29:53:497
-7.748;2.166;5.871;-8.8585;3.3184;2.5953;9.2591;-11.0982;-9.6202;-5.6548;-5.4581;-7.8526;0.0;15.71;22.31;25.14;55.5;12.92;-142.43;0.0;66.988;39.46849;-0.341853;25.4;NaN;6.46;3.4;166.03;14 / 33;15965;2021-10-20 19:29:53:547
5.1911;-20.5249;-2.326;-8.8585;3.3184;2.5953;-1.479;13.5467;-3.5056;6.3301;4.6926;8.0732;0.0;15.06;21.79;26.16;308.38;-19.77;73.67;0.0;66.988;39.46849;-0.341853;25.4;NaN;6.46;3.4;166.03;14 / 33;16015;2021-10-20 19:29:53:597
4.7531;-37.551;-4.921;-9.7444;0.4549;-0.9912;-1.479;13.5467;-3.5056;6.3301;4.6926;8.0732;0.0;15.06;21.79;26.16;308.38;-19.77;73.67;0.0;64.157;39.46849;-0.341853;25.4;NaN;6.46;3.4;166.03;14 / 33;16065;2021-10-20 19:29:53:647
-0.677;-15.209;-4.263;-9.4379;0.4166;-2.6384;5.604;27.1197;5.3391;1.7193;0.9754;2.0723;0.0;12.11;19.26;28.86;308.38;-19.77;73.67;0.0;64.157;39.46849;-0.341853;25.4;NaN;6.46;3.4;166.03;14 / 33;16114;2021-10-20 19:29:53:696
-3.6379;3.7691;-1.369;6.8235;6.5984;-2.4708;9.7699;-3.3606;-6.475;0.8999;1.193;1.8461;0.0;12.11;19.26;28.86;308.38;-19.77;73.67;0.0;64.157;39.46849;-0.341853;25.4;NaN;6.46;3.4;166.03;14 / 33;16164;2021-10-20 19:29:53:746
-3.6379;3.7691;-1.369;6.8235;6.5984;-2.4708;3.2267;-11.4759;1.1057;0.8999;1.193;1.8461;0.0;6.84;17.21;30.96;64.19;-42.28;-109.91;0.0;64.157;39.46849;-0.341853;25.4;NaN;6.46;3.4;166.03;14 / 33;16215;2021-10-20 19:29:53:797
-1.986;3.872;8.1161;4.1276;2.1069;8.6431;3.2267;-11.4759;1.1057;3.0166;2.7805;4.1524;0.0;5.81;16.39;31.69;64.19;-42.28;-109.91;0.0;64.157;39.46849;-0.341853;25.4;NaN;6.46;3.4;166.03;14 / 33;16265;2021-10-20 19:29:53:847
1.7561;-4.947;-3.588;-7.6375;-2.6911;-5.5306;-1.7039;-9.9031;4.8381;3.0166;2.7805;4.1524;0.0;5.81;16.39;31.69;64.19;-42.28;-109.91;0.0;64.157;39.46849;-0.341853;25.4;NaN;6.46;3.4;166.03;14 / 33;16314;2021-10-20 19:29:53:896
-16.5731;-10.4359;-2.685;-5.1763;8.2217;-1.3312;-14.11;5.6272;-4.3048;3.2337;2.427;4.2203;0.0;7.31;16.14;31.56;291.7;15.93;125.91;0.0;64.594;39.46849;-0.341853;25.4;NaN;6.46;3.4;166.03;14 / 33;16365;2021-10-20 19:29:53:947
-7.4149;-24.98;-3.973;-9.2943;2.7581;-1.4748;-1.3571;9.1411;-3.8898;-0.6086;1.0941;-0.7426;0.0;8.7;16.31;31.56;302.54;-16.34;99.02;0.0;64.594;39.46849;-0.341853;25.4;NaN;6.46;3.4;166.03;14 / 33;16414;2021-10-20 19:29:53:996
7.523;-8.7311;-0.136;-7.4316;-6.3973;-0.1053;-1.3571;9.1411;-3.8898;-0.6086;1.0941;-0.7426;0.0;8.7;16.31;31.56;302.54;-16.34;99.02;0.0;64.594;39.46849;-0.341853;25.4;NaN;6.46;3.4;166.03;14 / 33;16465;2021-10-20 19:29:54:047
-8.1949;-22.533;-26.442;-7.4316;-6.3973;-0.1053;-11.0726;-0.3819;0.8295;-0.523;0.1733;-1.0229;0.0;14.16;17.51;28.74;278.38;40.72;90.81;0.0;64.594;39.46849;-0.341853;25.4;NaN;6.46;3.4;166.03;14 / 33;16514;2021-10-20 19:29:54:096
-8.1949;-22.533;-26.442;-7.0485;-0.4357;-6.8043;-3.6377;6.1382;15.3766;-1.5212;-0.8719;-1.3229;0.0;14.16;17.51;28.74;278.38;40.72;90.81;0.0;64.594;39.46849;-0.341853;25.4;NaN;6.46;3.4;166.03;14 / 33;16564;2021-10-20 19:29:54:146
13.007;2.2301;-5.1889;5.6599;-5.5881;-5.7365;-3.6377;6.1382;15.3766;-1.5212;-0.8719;-1.3229;0.0;17.46;20.94;24.19;278.38;40.72;90.81;0.0;64.594;39.46849;-0.341853;25.4;NaN;6.46;3.4;166.03;14 / 33;16615;2021-10-20 19:29:54:197
2.319;-2.0771;-3.164;-9.232;2.0063;-2.624;-7.8496;-16.506;6.7344;-1.5815;-2.8395;-3.376;0.0;15.54;23.29;23.4;59.89;34.74;-135.39;0.0;65.123;39.46849;-0.341853;25.4;NaN;6.46;3.4;166.03;14 / 33;16665;2021-10-20 19:29:54:247
7.82;8.4251;-0.9401;-9.232;2.0063;-2.624;2.0022;-4.766;-0.0439;-1.5815;-2.8395;-3.376;0.0;15.54;23.29;23.4;59.89;34.74;-135.39;0.0;65.123;39.46849;-0.341853;25.4;NaN;6.46;3.4;166.03;14 / 33;16715;2021-10-20 19:29:54:297
-7.2379;-57.219;1.23;-9.3996;-2.7916;-0.182;5.8613;34.6863;7.7347;-1.5942;-0.2963;-8.6852;0.0;15.11;21.49;26.29;301.45;16.54;91.11;0.0;65.123;39.46849;-0.341853;25.4;NaN;6.46;3.4;166.03;14 / 33;16765;2021-10-20 19:29:54:347
-7.2379;-57.219;1.23;-9.4044;2.6001;-0.996;5.8613;34.6863;7.7347;0.6101;0.5111;2.8949;0.0;14.94;15.66;31.56;301.45;16.54;91.11;0.0;65.123;39.46849;-0.341853;25.4;NaN;6.46;3.4;166.03;14 / 33;16815;2021-10-20 19:29:54:397
-3.805;-11.4821;-8.126;-6.0047;7.6662;-1.1444;4.7977;21.114;13.5602;0.6101;0.5111;2.8949;0.0;14.94;15.66;31.56;301.45;16.54;91.11;0.0;65.123;39.46849;-0.341853;25.4;NaN;6.46;3.4;166.03;14 / 33;16865;2021-10-20 19:29:54:447
-0.5689;-3.341;3.092;4.4724;-0.2729;8.7245;2.483;-6.042;-5.2133;0.2621;1.0285;2.5139;0.0;14.21;9.54;34.74;304.84;-51.43;100.79;0.0;65.123;39.46849;-0.341853;25.4;NaN;6.46;3.4;166.03;14 / 33;16914;2021-10-20 19:29:54:496
-10.752;11.297;10.1051;4.4724;-0.2729;8.7245;2.483;-6.042;-5.2133;0.2621;1.0285;2.5139;0.0;14.51;8.34;34.8;304.84;-51.43;100.79;0.0;65.123;39.46849;-0.341853;25.4;NaN;6.46;3.4;166.03;14 / 33;16965;2021-10-20 19:29:54:547
-1.302;-3.5801;-6.987;6.3686;3.8499;6.3877;10.8933;-21.0023;-11.4509;2.2226;2.0471;4.6845;0.0;14.51;8.34;34.8;304.84;-51.43;100.79;0.0;65.123;39.46849;-0.341853;25.4;NaN;6.46;3.4;166.03;14 / 33;17015;2021-10-20 19:29:54:597
17.0711;-21.609;7.4531;-7.4316;-5.8706;2.5618;-9.4376;16.8707;17.9067;2.2419;1.6797;3.0173;0.0;16.91;12.06;32.64;104.2;-23.11;-44.91;0.0;68.055;39.468483;-0.341833;25.5;NaN;4.81;3.4;146.78;12 / 33;17065;2021-10-20 19:29:54:647
-0.2771;3.1061;21.717;1.3886;0.1197;9.7061;-9.4376;16.8707;17.9067;2.2419;1.6797;3.0173;0.0;16.91;12.06;32.64;104.2;-23.11;-44.91;0.0;68.055;39.468483;-0.341833;25.5;NaN;4.81;3.4;146.78;12 / 33;17114;2021-10-20 19:29:54:696
-0.2771;3.1061;21.717;1.3886;0.1197;9.7061;-4.1074;-11.6464;-19.7012;-1.3542;0.6743;-1.2118;0.0;13.14;13.99;32.76;328.89;-0.7;-8.14;0.0;68.055;39.468483;-0.341833;25.5;NaN;4.81;3.4;146.78;12 / 33;17164;2021-10-20 19:29:54:746
3.173;-32.196;5.766;-9.6103;-0.9433;1.719;-10.6156;18.8212;-0.3864;0.2641;0.1709;-1.1645;0.0;9.96;16.44;32.1;328.89;-0.7;-8.14;0.0;68.055;39.468483;-0.341833;25.5;NaN;4.81;3.4;146.78;12 / 33;17215;2021-10-20 19:29:54:797
2.015;-26.4851;-12.585;-8.8394;-0.6704;-4.1994;-10.6156;18.8212;-0.3864;0.2641;0.1709;-1.1645;0.0;9.96;16.44;32.1;328.89;-0.7;-8.14;0.0;68.055;39.468483;-0.341833;25.5;NaN;4.81;3.4;146.78;12 / 33;17265;2021-10-20 19:29:54:847
9.521;-0.203;-2.776;-0.1867;-9.414;-2.7342;-5.7089;4.7396;9.2655;-1.4425;-0.0667;-1.7475;0.0;13.8;20.94;27.84;314.97;3.92;115.41;0.0;68.055;39.468483;-0.341833;25.5;NaN;4.81;3.4;146.78;12 / 33;17315;2021-10-20 19:29:54:897
3.4991;-1.627;-4.3129;-2.7533;-5.9233;-7.3119;-17.9114;-14.1552;5.8854;-1.4425;-0.0667;-1.7475;0.0;13.8;20.94;27.84;314.97;3.92;115.41;0.0;64.839;39.468483;-0.341833;25.5;NaN;4.81;3.4;146.78;12 / 33;17364;2021-10-20 19:29:54:946
-0.7579;0.603;-1.6969;3.0263;3.7828;-8.5281;1.8028;-9.782;-0.4882;-1.94;-2.3826;-4.1342;0.0;16.26;22.31;24.9;314.97;3.92;115.41;0.0;64.839;39.468483;-0.341833;25.5;NaN;4.81;3.4;146.78;12 / 33;17414;2021-10-20 19:29:54:996
-0.7579;0.603;-1.6969;3.0263;3.7828;-8.5281;1.8028;-9.782;-0.4882;-1.004;-1.2349;-6.4089;0.0;16.01;20.64;26.04;41.62;-22.69;-160.46;0.0;64.839;39.468483;-0.341833;25.5;NaN;4.81;3.4;146.78;12 / 33;17464;2021-10-20 19:29:55:046
2.831;-20.886;-8.765;-8.9735;-1.2115;-3.7637;0.9664;1.2894;-3.2625;-1.004;-1.2349;-6.4089;0.0;16.01;20.64;26.04;41.62;-22.69;-160.46;0.0;64.839;39.468483;-0.341833;25.5;NaN;4.81;3.4;146.78;12 / 33;17514;2021-10-20 19:29:55:096
6.209;-48.4181;-11.8361;-9.4523;-1.2115;-2.308;-16.8011;24.9557;18.6016;0.3576;0.5957;2.601;0.0;12.66;17.89;29.7;303.44;7.1;112.75;0.0;64.839;39.468483;-0.341833;25.5;NaN;4.81;3.4;146.78;12 / 33;17564;2021-10-20 19:29:55:146
-0.6551;-5.687;2.3741;-8.9974;1.0343;3.7541;6.1522;-8.5674;-8.7767;0.3576;0.5957;2.601;0.0;7.44;14.94;33.3;293.27;-6.06;67.35;0.0;64.839;39.468483;-0.341833;25.5;NaN;4.81;3.4;146.78;12 / 33;17615;2021-10-20 19:29:55:197
-12.573;4.827;15.9701;2.2649;5.9041;7.4986;6.1522;-8.5674;-8.7767;0.3576;0.5957;2.601;0.0;7.44;14.94;33.3;293.27;-6.06;67.35;0.0;64.412;39.468483;-0.341833;25.5;NaN;4.81;3.4;146.78;12 / 33;17665;2021-10-20 19:29:55:247
-5.467;3.803;3.461;4.9704;7.1443;4.525;14.7535;-21.3244;-8.235;1.7336;2.3009;2.6161;0.0;8.34;13.69;34.39;167.5;-37.01;-16.81;0.0;64.412;39.468483;-0.341833;25.5;NaN;4.81;3.4;146.78;12 / 33;17715;2021-10-20 19:29:55:297
-5.467;3.803;3.461;4.9704;7.1443;4.525;14.7535;-21.3244;-8.235;1.7336;2.3009;2.6161;0.0;8.34;13.69;34.39;167.5;-37.01;-16.81;0.0;64.412;39.468483;-0.341833;25.5;NaN;4.81;3.4;146.78;12 / 33;17765;2021-10-20 19:29:55:347
6.927;-24.372;-19.46;-7.4843;-2.1261;-5.9711;-7.803;3.4054;8.7702;5.2911;0.8995;5.8091;0.0;12.41;15.06;32.7;167.5;-37.01;-16.81;0.0;64.412;39.468483;-0.341833;25.5;NaN;4.81;3.4;146.78;12 / 33;17814;2021-10-20 19:29:55:396
-24.008;-5.4191;-22.7921;-1.5802;7.0198;-6.6655;-3.4072;-3.1111;-17.6924;-3.1749;1.4284;-0.5426;0.0;9.6;16.01;32.59;3.39;-45.7;166.66;0.0;64.412;39.468483;-0.341833;25.5;NaN;4.81;3.4;146.78;12 / 33;17864;2021-10-20 19:29:55:446
-8.2069;-21.411;-1.184;-9.1458;3.5051;-0.5028;0.5172;3.6086;-0.2395;-3.1749;1.4284;-0.5426;0.0;9.6;16.01;32.59;3.39;-45.7;166.66;0.0;64.412;39.468483;-0.341833;25.5;NaN;4.81;3.4;146.78;12 / 33;17914;2021-10-20 19:29:55:496
8.837;-31.608;-3.6;-9.3901;-2.624;-1.0678;0.5172;3.6086;-0.2395;-0.6561;0.549;-0.6794;0.0;6.06;17.04;32.89;299.78;-20.94;93.15;0.0;64.412;39.468483;-0.341833;25.5;NaN;4.81;3.4;146.78;12 / 33;17965;2021-10-20 19:29:55:547
3.245;-8.5571;-6.479;-7.4891;-2.8395;-5.6647;-10.6588;22.094;5.1651;-0.9933;0.4062;-0.6292;0.0;7.74;19.99;30.3;299.78;-20.94;93.15;0.0;63.571;39.46847;-0.34181;25.5;NaN;4.46;3.4;121.83;12 / 33;18015;2021-10-20 19:29:55:597
3.245;-8.5571;-6.479;-7.4891;-2.8395;-5.6647;-8.9404;-6.7716;3.1077;-0.9933;0.4062;-0.6292;0.0;7.74;19.99;30.3;299.78;-20.94;93.15;0.0;63.571;39.46847;-0.34181;25.5;NaN;4.46;3.4;121.83;12 / 33;18065;2021-10-20 19:29:55:647
13.413;5.124;-1.946;3.4716;-9.0788;-1.312;-2.6315;-9.4048;3.9133;-1.2895;-0.9698;-2.4673;0.0;12.0;22.61;26.94;315.47;16.83;127.1;0.0;63.571;39.46847;-0.34181;25.5;NaN;4.46;3.4;121.83;12 / 33;18115;2021-10-20 19:29:55:697
0.8801;1.259;-2.6299;4.0414;-2.8108;-8.4803;-2.6315;-9.4048;3.9133;-1.2764;-2.9274;-5.591;0.0;15.06;23.04;26.64;56.11;16.66;-154.52;0.0;63.571;39.46847;-0.34181;25.5;NaN;4.46;3.4;121.83;12 / 33;18165;2021-10-20 19:29:55:747
5.328;-11.707;1.749;-8.8442;-4.027;1.3168;2.4352;-4.6305;-3.3376;-1.2764;-2.9274;-5.591;0.0;15.06;23.04;26.64;56.11;16.66;-154.52;0.0;63.571;39.46847;-0.34181;25.5;NaN;4.46;3.4;121.83;12 / 33;18215;2021-10-20 19:29:55:797
-4.0759;-41.0771;1.0601;-9.754;0.9673;0.249;2.4352;-4.6305;-3.3376;-0.1459;-1.6808;-1.0726;0.0;16.44;20.81;28.5;56.11;16.66;-154.52;0.0;63.571;39.46847;-0.34181;25.5;NaN;4.46;3.4;121.83;12 / 33;18265;2021-10-20 19:29:55:847
7.094;-18.241;-6.886;-9.754;0.9673;0.249;9.1735;32.8869;-2.8552;0.1771;-0.1994;1.4816;0.0;12.71;16.86;32.1;299.27;-5.66;88.54;0.0;61.897;39.46847;-0.34181;25.5;NaN;4.46;3.4;121.83;12 / 33;18315;2021-10-20 19:29:55:897
-11.9771;0.26;11.0441;-9.6822;-0.3112;1.5419;3.7833;-1.5904;-2.8556;0.1771;-0.1994;1.4816;0.0;12.71;16.86;32.1;299.27;-5.66;88.54;0.0;61.897;39.46847;-0.34181;25.5;NaN;4.46;3.4;121.83;12 / 33;18365;2021-10-20 19:29:55:947
-11.9771;0.26;11.0441;5.8419;5.9616;5.1475;3.7833;-1.5904;-2.8556;0.3046;0.7272;1.5945;0.0;10.8;14.21;34.14;299.27;-5.66;88.54;0.0;61.897;39.46847;-0.34181;25.5;NaN;4.46;3.4;121.83;12 / 33;18415;2021-10-20 19:29:55:997
-10.5889;7.638;7.496;5.8419;5.9616;5.1475;12.9669;-19.1829;-9.7938;0.3046;0.7272;1.5945;0.0;10.8;14.21;34.14;299.27;-5.66;88.54;0.0;61.897;39.46847;-0.34181;25.5;NaN;4.46;3.4;121.83;12 / 33;18465;2021-10-20 19:29:56:047
6.333;-7.7051;-5.682;-3.4141;7.762;-4.9321;-7.6971;-1.4835;8.8449;6.2971;1.6427;6.0393;0.0;13.61;14.04;33.3;348.68;-52.3;145.31;0.0;61.897;39.46847;-0.34181;25.5;NaN;4.46;3.4;121.83;12 / 33;18515;2021-10-20 19:29:56:097
5.8211;-6.374;26.447;-7.4508;-5.8849;-2.4565;-7.6971;-1.4835;8.8449;-0.6201;1.5661;0.1316;0.0;14.46;15.41;32.04;265.62;36.87;108.25;0.0;61.897;39.46847;-0.34181;25.5;NaN;4.46;3.4;121.83;12 / 33;18565;2021-10-20 19:29:56:147
1.601;-12.5471;7.1111;-2.7868;-0.8667;9.3661;-7.7874;-2.5419;-22.8278;-0.6201;1.5661;0.1316;0.0;14.46;15.41;32.04;265.62;36.87;108.25;0.0;65.213;39.46847;-0.34181;25.5;NaN;4.46;3.4;121.83;12 / 33;18614;2021-10-20 19:29:56:196
11.7881;-28.11;5.7131;-9.7923;0.3879;0.3687;-2.8769;3.147;-4.6172;-1.1082;-0.0287;-1.697;0.0;10.56;16.14;33.66;312.49;5.07;16.57;0.0;65.213;39.46847;-0.34181;25.5;NaN;4.46;3.4;121.83;12 / 33;18664;2021-10-20 19:29:56:246
11.7881;-28.11;5.7131;-9.1842;-0.9481;-3.304;-10.1692;21.279;6.5784;0.1448;0.4681;-0.3732;0.0;8.21;18.41;32.7;299.61;5.55;109.79;0.0;65.213;39.46847;-0.34181;25.5;NaN;4.46;3.4;121.83;12 / 33;18714;2021-10-20 19:29:56:296
5.313;-16.54;-8.741;-1.7382;-9.2751;-2.6767;-10.1692;21.279;6.5784;0.1448;0.4681;-0.3732;0.0;8.21;18.41;32.7;299.61;5.55;109.79;0.0;65.213;39.46847;-0.34181;25.5;NaN;4.46;3.4;121.83;12 / 33;18765;2021-10-20 19:29:56:347
15.9701;6.41;-2.329;-1.7382;-9.2751;-2.6767;-10.7588;-7.7135;4.3342;-1.6328;-0.2926;-1.3097;0.0;12.06;21.66;28.86;299.61;5.55;109.79;0.0;65.213;39.46847;-0.34181;25.5;NaN;4.46;3.4;121.83;12 / 33;18815;2021-10-20 19:29:56:397
0.05;-1.318;-5.414;0.2107;-8.4324;-5.0039;2.3685;-8.1981;5.316;-1.6712;-2.3504;-3.8439;0.0;12.06;21.66;28.86;299.61;5.55;109.79;0.0;65.213;39.46847;-0.34181;25.5;NaN;4.46;3.4;121.83;12 / 33;18865;2021-10-20 19:29:56:447
1.835;-1.1531;-1.1891;4.2282;-7.197;-5.1523;2.3685;-8.1981;5.316;-1.6712;-2.3504;-3.8439;0.0;14.7;22.91;27.84;126.05;59.29;-177.59;0.0;65.213;39.46847;-0.34181;25.5;NaN;4.46;3.4;121.83;12 / 33;18915;2021-10-20 19:29:56:497
11.733;-25.87;-9.9881;-8.6239;-4.5681;0.9864;3.6826;-6.8872;0.0305;-0.8618;-1.4073;-5.4373;0.0;14.04;21.66;29.1;295.54;27.76;83.47;0.0;63.536;39.46847;-0.34181;25.5;NaN;4.46;3.4;121.83;12 / 33;18964;2021-10-20 19:29:56:546
11.733;-25.87;-9.9881;-9.7588;-0.8284;-0.4741;3.3426;37.9015;-0.9719;-0.8618;-1.4073;-5.4373;0.0;14.04;21.66;29.1;295.54;27.76;83.47;0.0;63.536;39.468464;-0.341783;25.5;NaN;3.23;3.4;108.6;12 / 33;19014;2021-10-20 19:29:56:596
26.4761;-40.2289;-17.997;-9.73;0.2538;1.2115;-3.4832;12.6178;7.4004;0.2691;0.3664;2.4248;0.0;9.3;18.11;32.89;295.54;27.76;83.47;0.0;63.536;39.468464;-0.341783;25.5;NaN;3.23;3.4;108.6;12 / 33;19064;2021-10-20 19:29:56:646
-2.271;1.11;5.1911;-9.73;0.2538;1.2115;-3.4832;12.6178;7.4004;-0.0865;0.5109;1.4176;0.0;5.94;15.24;35.34;292.97;-1.48;82.9;0.0;63.536;39.468464;-0.341783;25.5;NaN;3.23;3.4;108.6;12 / 33;19114;2021-10-20 19:29:56:696
-14.529;4.535;11.0441;0.3879;7.3263;6.5074;9.934;-8.5246;-8.7906;-0.0865;0.5109;1.4176;0.0;5.94;15.24;35.34;292.97;-1.48;82.9;0.0;63.536;39.468464;-0.341783;25.5;NaN;3.23;3.4;108.6;12 / 33;19164;2021-10-20 19:29:56:746
-5.072;-0.9379;-1.093;5.3199;5.8945;5.7557;11.4122;-17.8022;-8.4815;1.7072;2.5587;3.1203;0.0;7.56;15.71;34.56;292.97;-1.48;82.9;0.0;63.536;39.468464;-0.341783;25.5;NaN;3.23;3.4;108.6;12 / 33;19215;2021-10-20 19:29:56:797
14.7851;-24.0799;-17.514;-7.4316;-5.2912;-3.6057;-11.9073;5.5356;10.5021;4.1276;1.9562;4.9057;0.0;7.56;15.71;34.56;292.97;-1.48;82.9;0.0;63.953;39.468464;-0.341783;25.5;NaN;3.23;3.4;108.6;12 / 33;19265;2021-10-20 19:29:56:847
-19.022;-11.496;-6.9671;-4.8411;8.0062;-2.9305;-11.9073;5.5356;10.5021;4.1276;1.9562;4.9057;0.0;9.24;17.89;32.59;276.68;32.64;115.88;0.0;63.953;39.468464;-0.341783;25.5;NaN;3.23;3.4;108.6;12 / 33;19315;2021-10-20 19:29:56:897
-19.022;-11.496;-6.9671;-4.8411;8.0062;-2.9305;17.5943;2.0477;9.172;-2.6242;0.5565;-1.0467;0.0;4.91;18.19;32.46;317.88;-54.75;121.19;0.0;63.953;39.468464;-0.341783;25.5;NaN;3.23;3.4;108.6;12 / 33;19365;2021-10-20 19:29:56:947
-0.8779;-30.492;-1.704;-9.7875;0.2777;-0.5459;0.0932;20.8226;3.2037;-2.6242;0.5565;-1.0467;0.0;4.91;18.19;32.46;317.88;-54.75;121.19;0.0;63.953;39.468464;-0.341783;25.5;NaN;3.23;3.4;108.6;12 / 33;19414;2021-10-20 19:29:56:996
5.567;-28.884;-9.1789;-8.418;-1.8531;-4.6783;0.0932;20.8226;3.2037;-0.3824;0.4429;-0.8733;0.0;2.34;19.69;32.29;302.26;-1.62;93.19;0.0;63.953;39.468464;-0.341783;25.5;NaN;3.23;3.4;108.6;12 / 33;19464;2021-10-20 19:29:57:046
5.531;-6.479;-3.145;2.6097;-9.3134;-1.6328;-5.2313;12.4705;13.6043;-0.6835;0.1128;-1.242;0.0;7.56;24.11;28.14;302.26;-1.62;93.19;0.0;63.953;39.468464;-0.341783;25.5;NaN;3.23;3.4;108.6;12 / 33;19514;2021-10-20 19:29:57:096
9.524;2.774;-0.617;2.6097;-9.3134;-1.6328;-14.1599;-13.8849;3.2278;-0.6835;0.1128;-1.242;0.0;7.56;24.11;28.14;302.26;-1.62;93.19;0.0;65.528;39.468464;-0.341783;25.5;NaN;3.23;3.4;108.6;12 / 33;19564;2021-10-20 19:29:57:146
0.4211;0.873;-0.945;-1.4078;-0.9864;-9.6534;4.1905;-8.4038;4.8256;-0.9545;-2.1025;-3.1971;0.0;11.64;25.44;24.9;20.42;5.77;171.7;0.0;65.528;39.468464;-0.341783;25.5;NaN;3.23;3.4;108.6;12 / 33;19615;2021-10-20 19:29:57:197
0.4211;0.873;-0.945;2.2984;-3.6823;-8.7915;4.1905;-8.4038;4.8256;-0.369;-2.0801;-6.5113;0.0;11.64;25.44;24.9;20.42;5.77;171.7;0.0;65.528;39.468464;-0.341783;25.5;NaN;3.23;3.4;108.6;12 / 33;19664;2021-10-20 19:29:57:246
6.723;-8.547;3.075;-7.8051;-5.8179;-1.1875;4.1215;-3.0433;-0.0486;-0.369;-2.0801;-6.5113;0.0;12.66;23.89;25.44;52.71;22.06;-165.35;0.0;65.528;39.468464;-0.341783;25.5;NaN;3.23;3.4;108.6;12 / 33;19714;2021-10-20 19:29:57:296
0.6581;-52.332;0.2801;-7.8051;-5.8179;-1.1875;-9.0647;26.786;5.7468;0.0938;-1.2757;0.9632;0.0;11.7;21.49;27.6;52.71;22.06;-165.35;0.0;65.528;39.468464;-0.341783;25.5;NaN;3.23;3.4;108.6;12 / 33;19764;2021-10-20 19:29:57:346
1.785;-16.2671;-3.367;-7.4891;-5.3151;-3.4381;3.7929;8.3919;1.5992;0.0865;0.078;1.5491;0.0;7.31;18.19;31.14;280.47;32.82;114.66;0.0;65.528;39.468464;-0.341783;25.5;NaN;3.23;3.4;108.6;12 / 33;19815;2021-10-20 19:29:57:397
-10.141;1.0931;13.607;4.3;4.6591;7.4795;3.7929;8.3919;1.5992;0.0865;0.078;1.5491;0.0;7.31;18.19;31.14;280.47;32.82;114.66;0.0;65.528;39.468464;-0.341783;25.5;NaN;3.23;3.4;108.6;12 / 33;19864;2021-10-20 19:29:57:446
-15.5029;8.193;7.097;4.2473;8.0397;3.6823;14.9768;-9.4784;-15.1368;0.6896;1.8608;2.2576;0.0;6.54;16.99;31.56;89.32;-28.37;-29.89;0.0;63.037;39.468464;-0.341783;25.5;NaN;3.23;3.4;108.6;12 / 33;19914;2021-10-20 19:29:57:496
-15.5029;8.193;7.097;4.2473;8.0397;3.6823;18.7594;-17.4311;-6.8301;0.6896;1.8608;2.2576;0.0;6.54;16.99;31.56;89.32;-28.37;-29.89;0.0;63.037;39.468464;-0.341783;25.5;NaN;3.23;3.4;108.6;12 / 33;19964;2021-10-20 19:29:57:546
8.3651;-11.961;-3.645;-7.8003;-5.454;-2.3703;-8.8872;2.9101;7.3809;6.0453;2.1214;6.6714;0.0;9.71;18.24;29.29;126.69;-55.04;-49.08;0.0;63.037;39.46846;-0.341755;25.6;NaN;5.4;3.4;101.66;14 / 33;20015;2021-10-20 19:29:57:597
6.233;-2.9749;14.3951;-1.8244;-3.8259;8.8442;-8.8872;2.9101;7.3809;-2.3651;0.2053;-1.5096;0.0;9.06;20.16;26.4;333.03;22.96;11.66;0.0;63.037;39.46846;-0.341755;25.6;NaN;5.4;3.4;101.66;14 / 33;20064;2021-10-20 19:29:57:646
-1.34;-6.29;8.1791;-9.0309;3.7828;-0.5794;16.8474;1.6775;23.5596;-2.3651;0.2053;-1.5096;0.0;9.06;20.16;26.4;333.03;22.96;11.66;0.0;63.037;39.46846;-0.341755;25.6;NaN;5.4;3.4;101.66;14 / 33;20114;2021-10-20 19:29:57:696
11.5271;-29.6141;4.9211;-9.0309;3.7828;-0.5794;6.1672;5.6477;2.6427;-1.2814;-0.0997;-1.0369;0.0;5.16;20.51;25.8;333.03;22.96;11.66;0.0;63.037;39.46846;-0.341755;25.6;NaN;5.4;3.4;101.66;14 / 33;20165;2021-10-20 19:29:57:747
7.6931;-17.736;-11.661;-8.9064;-4.0989;0.3017;-15.4852;23.8312;0.4702;-0.5932;0.4142;-0.237;0.0;5.46;22.44;23.34;308.2;24.7;88.06;0.0;65.193;39.46846;-0.341755;25.6;NaN;5.4;3.4;101.66;14 / 33;20215;2021-10-20 19:29:57:797
7.6931;-17.736;-11.661;-6.7756;-4.6304;-5.3678;-6.4263;0.1761;9.0536;-0.5932;0.4142;-0.237;0.0;5.46;22.44;23.34;308.2;24.7;88.06;0.0;65.193;39.46846;-0.341755;25.6;NaN;5.4;3.4;101.66;14 / 33;20264;2021-10-20 19:29:57:846
15.6731;4.82;-2.838;4.4293;-8.7388;-0.4405;-6.4263;0.1761;9.0536;-1.1533;-0.4272;-0.9837;0.0;10.74;24.79;18.6;308.2;24.7;88.06;0.0;65.193;39.46846;-0.341755;25.6;NaN;5.4;3.4;101.66;14 / 33;20315;2021-10-20 19:29:57:897
0.6341;-0.971;-4.6481;0.431;0.1149;-9.7971;-6.1974;-12.267;0.1109;-1.1533;-0.4272;-0.9837;0.0;10.74;24.79;18.6;308.2;24.7;88.06;0.0;65.193;39.46846;-0.341755;25.6;NaN;5.4;3.4;101.66;14 / 33;20365;2021-10-20 19:29:57:947
-0.179;-0.351;-2.24;-9.7683;-0.8475;-0.0192;5.3632;-7.9541;1.5449;-0.9054;-3.6777;-3.967;0.0;12.6;25.39;16.44;28.53;-0.67;-177.48;0.0;65.193;39.46846;-0.341755;25.6;NaN;5.4;3.4;101.66;14 / 33;20414;2021-10-20 19:29:57:996
11.312;-20.355;-7.1539;-9.7683;-0.8475;-0.0192;5.3632;-7.9541;1.5449;0.415;-1.6437;-3.7731;0.0;9.6;25.26;17.7;323.2;4.96;90.11;0.0;65.193;39.46846;-0.341755;25.6;NaN;5.4;3.4;101.66;14 / 33;20464;2021-10-20 19:29:58:046
18.876;-47.4289;-10.9601;-9.3278;-2.6719;-1.4317;-4.6824;13.2411;5.8112;0.415;-1.6437;-3.7731;0.0;9.6;25.26;17.7;323.2;4.96;90.11;0.0;62.658;39.46846;-0.341755;25.6;NaN;5.4;3.4;101.66;14 / 33;20514;2021-10-20 19:29:58:096
18.876;-47.4289;-10.9601;-7.3263;-5.4827;-3.5291;-14.7681;19.0386;11.467;0.225;-0.2579;1.9003;0.0;2.7;23.04;21.9;323.2;4.96;90.11;0.0;62.658;39.46846;-0.341755;25.6;NaN;5.4;3.4;101.66;14 / 33;20564;2021-10-20 19:29:58:146
-0.9139;-3.1901;4.4711;0.9481;5.7461;7.8913;10.1126;-9.2799;-8.7304;-0.3477;1.1336;1.4552;0.0;-3.19;19.01;26.29;85.46;-35.87;-6.85;0.0;62.658;39.46846;-0.341755;25.6;NaN;5.4;3.4;101.66;14 / 33;20614;2021-10-20 19:29:58:196
-13.186;7.571;12.8891;4.6735;7.7764;3.7302;10.1126;-9.2799;-8.7304;-0.3477;1.1336;1.4552;0.0;-3.19;19.01;26.29;85.46;-35.87;-6.85;0.0;62.658;39.46846;-0.341755;25.6;NaN;5.4;3.4;101.66;14 / 33;20664;2021-10-20 19:29:58:246
-6.151;-0.7181;1.496;-8.8729;-2.8826;-3.0167;17.866;-16.418;-5.2901;5.5912;5.0094;4.4886;0.0;-3.3;17.89;28.26;92.45;-52.44;-51.4;0.0;62.658;39.46846;-0.341755;25.6;NaN;5.4;3.4;101.66;14 / 33;20715;2021-10-20 19:29:58:297
13.9451;-23.472;-22.974;-6.4596;-7.3741;0.2394;-9.2256;6.4126;10.0723;1.3674;4.7644;3.1481;0.0;-3.3;17.89;28.26;92.45;-52.44;-51.4;0.0;62.658;39.46846;-0.341755;25.6;NaN;5.4;3.4;101.66;14 / 33;20765;2021-10-20 19:29:58:347
-22.074;-10.3781;-21.1541;-6.4596;-7.3741;0.2394;-1.9457;-5.2457;-19.096;1.3674;4.7644;3.1481;0.0;-1.74;19.99;27.3;299.85;48.76;87.88;0.0;62.658;39.46846;-0.341755;25.6;NaN;5.4;3.4;101.66;14 / 33;20815;2021-10-20 19:29:58:397
0.5381;-21.0041;0.591;-2.8012;2.4517;9.074;-1.9457;-5.2457;-19.096;-2.2903;0.9822;-1.474;0.0;-5.46;19.74;26.34;347.26;-14.48;17.16;0.0;64.962;39.46846;-0.341755;25.6;NaN;5.4;3.4;101.66;14 / 33;20865;2021-10-20 19:29:58:447
0.5381;-21.0041;0.591;-9.5002;-2.308;0.8332;-1.0884;11.4222;1.4333;-2.2903;0.9822;-1.474;0.0;-5.46;19.74;26.34;347.26;-14.48;17.16;0.0;64.962;39.46846;-0.341755;25.6;NaN;5.4;3.4;101.66;14 / 33;20915;2021-10-20 19:29:58:497
11.372;-32.1799;-4.7269;-8.5042;-1.1875;-4.7453;-11.473;22.5523;6.6324;0.3076;0.7722;-1.0963;0.0;-6.66;22.09;24.66;314.09;13.6;84.99;0.0;64.962;39.46846;-0.341755;25.6;NaN;5.4;3.4;101.66;14 / 33;20964;2021-10-20 19:29:58:546
6.312;-9.945;-4.37;-7.7668;-4.9273;-3.4046;-9.1349;-8.4302;3.7119;-0.7767;0.3209;-1.2973;0.0;-2.16;26.46;21.66;314.09;13.6;84.99;0.0;64.962;39.46845;-0.34171;25.6;NaN;5.57;3.3;94.33;14 / 33;21014;2021-10-20 19:29:58:596
15.714;6.6971;-0.09;-7.7668;-4.9273;-3.4046;-9.1349;-8.4302;3.7119;-0.7767;0.3209;-1.2973;0.0;-2.16;26.46;21.66;314.09;13.6;84.99;0.0;64.962;39.46845;-0.34171;25.6;NaN;5.57;3.3;94.33;14 / 33;21065;2021-10-20 19:29:58:647
0.8231;1.0241;-3.035;1.4365;-8.2121;-5.1667;-1.9911;-10.2526;3.2518;-0.1875;-4.1034;-3.5493;0.0;2.4;28.31;18.54;319.53;30.16;113.67;0.0;64.962;39.46845;-0.34171;25.6;NaN;5.57;3.3;94.33;14 / 33;21115;2021-10-20 19:29:58:697
7.415;-12.3101;1.244;-8.8107;-2.6815;3.371;5.4499;-8.0874;1.8695;-0.1875;-4.1034;-3.5493;0.0;3.06;27.24;19.86;323.97;15.87;69.06;0.0;64.995;39.46845;-0.34171;25.6;NaN;5.57;3.3;94.33;14 / 33;21165;2021-10-20 19:29:58:747
7.415;-12.3101;1.244;-9.3757;-2.5091;-1.3934;5.4499;-8.0874;1.8695;1.2459;-2.5024;-6.0471;0.0;3.06;27.24;19.86;323.97;15.87;69.06;0.0;64.995;39.46845;-0.34171;25.6;NaN;5.57;3.3;94.33;14 / 33;21214;2021-10-20 19:29:58:796
6.197;-54.067;0.911;-7.0342;-5.77;-3.6679;-2.145;26.9747;4.1514;-0.5783;0.4058;2.673;0.0;0.3;23.46;24.9;323.97;15.87;69.06;0.0;64.995;39.46845;-0.34171;25.6;NaN;5.57;3.3;94.33;14 / 33;21264;2021-10-20 19:29:58:846
1.1171;-8.868;-0.756;-7.0342;-5.77;-3.6679;-13.4046;15.9453;11.3286;-0.5783;0.4058;2.673;0.0;-2.16;16.56;30.9;282.62;36.03;117.54;0.0;64.995;39.46845;-0.34171;25.6;NaN;5.57;3.3;94.33;14 / 33;21315;2021-10-20 19:29:58:897
-16.5349;1.5341;13.698;0.5602;6.4643;7.3502;21.5291;-9.9174;-14.5069;-0.7217;1.0189;1.5335;0.0;-2.16;16.56;30.9;282.62;36.03;117.54;0.0;64.995;39.46845;-0.34171;25.6;NaN;5.57;3.3;94.33;14 / 33;21365;2021-10-20 19:29:58:947
-10.917;6.8171;7.7051;4.2234;8.2456;3.2226;21.5291;-9.9174;-14.5069;1.1989;3.2412;2.7204;0.0;-0.36;12.84;33.24;282.62;36.03;117.54;0.0;64.995;39.46845;-0.34171;25.6;NaN;5.57;3.3;94.33;14 / 33;21414;2021-10-20 19:29:58:996
11.3381;-14.076;-6.979;-7.0677;-4.9608;-4.6495;5.9516;-9.1531;0.8843;1.1989;3.2412;2.7204;0.0;-0.36;12.84;33.24;282.62;36.03;117.54;0.0;64.053;39.46845;-0.34171;25.6;NaN;5.57;3.3;94.33;14 / 33;21464;2021-10-20 19:29:59:046
11.3381;-14.076;-6.979;-6.6894;-7.039;1.3838;-17.3035;17.7695;26.6307;3.9531;1.86;5.5818;0.0;1.74;14.16;31.8;275.21;30.39;123.34;0.0;64.053;39.46845;-0.34171;25.6;NaN;5.57;3.3;94.33;14 / 33;21514;2021-10-20 19:29:59:096
-3.4421;-11.1281;16.262;0.4405;3.553;9.1315;-17.3035;17.7695;26.6307;-2.8339;0.9028;-1.0697;0.0;-1.14;13.99;30.49;275.21;30.39;123.34;0.0;64.053;39.46845;-0.34171;25.6;NaN;5.57;3.3;94.33;14 / 33;21565;2021-10-20 19:29:59:147
6.189;-8.1619;5.4;0.4405;3.553;9.1315;7.8365;-10.5696;-19.6563;-2.8339;0.9028;-1.0697;0.0;-1.14;13.99;30.49;275.21;30.39;123.34;0.0;64.053;39.46845;-0.34171;25.6;NaN;5.57;3.3;94.33;14 / 33;21615;2021-10-20 19:29:59:197
13.287;-27.5621;3.509;-8.9591;-3.8068;1.1732;-14.5047;24.3067;-2.7037;-0.521;0.6485;-1.0004;0.0;-4.5;14.04;29.59;298.63;22.85;82.54;0.0;64.053;39.46845;-0.34171;25.6;NaN;5.57;3.3;94.33;14 / 33;21665;2021-10-20 19:29:59:247
5.4521;-13.569;-6.374;-8.5138;-2.8778;-3.9265;-14.5047;24.3067;-2.7037;-0.521;0.6485;-1.0004;0.0;-2.7;18.11;25.5;298.63;22.85;82.54;0.0;64.053;39.46845;-0.34171;25.6;NaN;5.57;3.3;94.33;14 / 33;21715;2021-10-20 19:29:59:297
14.6441;8.078;-3.013;2.6384;-9.2416;-1.9537;-4.9869;3.8794;7.8201;-0.7289;0.308;-1.3878;0.0;-2.7;18.11;25.5;298.63;22.85;82.54;0.0;64.053;39.46845;-0.34171;25.6;NaN;5.57;3.3;94.33;14 / 33;21764;2021-10-20 19:29:59:346
14.6441;8.078;-3.013;0.0287;-5.2625;-8.2744;-13.0115;-17.7249;3.6643;-1.0578;-2.2604;-3.2497;0.0;1.56;21.19;21.24;100.14;70.44;-126.52;0.0;64.053;39.46845;-0.34171;25.6;NaN;5.57;3.3;94.33;14 / 33;21814;2021-10-20 19:29:59:396
1.1921;0.864;-5.318;-9.4523;-2.6145;0.1101;2.7277;-9.8465;5.0468;-1.0578;-2.2604;-3.2497;0.0;1.56;21.19;21.24;100.14;70.44;-126.52;0.0;66.134;39.46845;-0.34171;25.6;NaN;5.57;3.3;94.33;14 / 33;21865;2021-10-20 19:29:59:447
2.604;-6.723;1.505;-9.4523;-2.6145;0.1101;2.7277;-9.8465;5.0468;0.7767;-2.8145;-6.5322;0.0;3.11;21.41;20.29;100.14;70.44;-126.52;0.0;66.134;39.46845;-0.34171;25.6;NaN;5.57;3.3;94.33;14 / 33;21914;2021-10-20 19:29:59:496
6.9911;-42.365;-3.43;-8.4372;-4.2808;-2.5809;0.7289;5.3416;-3.5854;-0.4102;-0.2709;2.2549;0.0;2.1;19.14;22.26;303.33;25.88;107.01;0.0;66.134;39.46845;-0.34171;25.6;NaN;5.57;3.3;94.33;14 / 33;21964;2021-10-20 19:29:59:546
16.427;-21.5351;-8.6599;-7.9535;-5.0996;-2.624;1.064;41.9346;1.9772;-0.4102;-0.2709;2.2549;0.0;2.1;19.14;22.26;303.33;25.88;107.01;0.0;66.134;39.468437;-0.341683;25.6;NaN;5.85;3.3;107.92;13 / 33;22014;2021-10-20 19:29:59:596
-5.313;-1.445;5.333;-1.8483;6.8043;6.8187;7.654;-4.2092;-3.7046;-0.2483;0.2934;1.5459;0.0;-0.96;14.81;27.06;303.33;25.88;107.01;0.0;66.134;39.468437;-0.341683;25.6;NaN;5.85;3.3;107.92;13 / 33;22064;2021-10-20 19:29:59:646
-5.313;-1.445;5.333;-1.8483;6.8043;6.8187;7.654;-4.2092;-3.7046;-0.2483;0.2934;1.5459;0.0;-0.96;12.24;30.84;210.16;-43.92;15.17;0.0;66.134;39.468437;-0.341683;25.6;NaN;5.85;3.3;107.92;13 / 33;22114;2021-10-20 19:29:59:696
-15.9289;9.0;8.717;4.3527;7.7093;4.2138;18.7792;-14.954;-14.1046;0.1678;2.0699;2.0862;0.0;-0.96;12.24;30.84;210.16;-43.92;15.17;0.0;63.37;39.468437;-0.341683;25.6;NaN;5.85;3.3;107.92;13 / 33;22164;2021-10-20 19:29:59:746
4.0691;-7.6661;-4.016;-7.8626;-4.1707;-4.1132;6.78;-8.0679;3.7956;4.6428;1.7067;7.2306;0.0;2.04;14.16;31.56;210.16;-43.92;15.17;0.0;63.37;39.468437;-0.341683;25.6;NaN;5.85;3.3;107.92;13 / 33;22215;2021-10-20 19:29:59:797
15.309;-8.308;18.9161;-3.1651;-5.8371;7.2161;-16.4557;-0.9323;-15.7928;4.6428;1.7067;7.2306;0.0;2.04;14.16;31.56;210.16;-43.92;15.17;0.0;63.37;39.468437;-0.341683;25.6;NaN;5.85;3.3;107.92;13 / 33;22265;2021-10-20 19:29:59:847
15.17;-12.135;22.4831;-9.6486;1.719;-0.3017;-16.4557;-0.9323;-15.7928;-2.17;1.1569;-0.8026;0.0;1.44;16.01;31.09;335.63;36.53;23.68;0.0;63.37;39.468437;-0.341683;25.6;NaN;5.85;3.3;107.92;13 / 33;22314;2021-10-20 19:29:59:896
8.66;-22.5791;4.2191;-9.6486;1.719;-0.3017;3.5752;10.9888;2.6157;-0.6986;0.2195;-1.2145;0.0;-1.2;16.56;31.44;335.63;36.53;23.68;0.0;63.37;39.468437;-0.341683;25.6;NaN;5.85;3.3;107.92;13 / 33;22365;2021-10-20 19:29:59:947
5.694;-21.6071;-9.342;-8.0302;-5.5881;0.6847;-17.7923;16.569;-0.2544;-0.6986;0.2195;-1.2145;0.0;-1.2;16.56;31.44;335.63;36.53;23.68;0.0;63.37;39.468437;-0.341683;25.6;NaN;5.85;3.3;107.92;13 / 33;22415;2021-10-20 19:29:59:997
5.694;-21.6071;-9.342;-7.1587;-5.5929;-3.6966;-7.5712;1.2662;7.2205;-0.6583;0.0084;-1.0158;0.0;0.0;21.19;29.1;302.86;34.74;85.13;0.0;64.574;39.468437;-0.341683;25.6;NaN;5.85;3.3;107.92;13 / 33;22465;2021-10-20 19:30:00:047
13.77;2.834;-3.2839;4.4724;-8.7149;-0.5267;-11.1855;-16.3705;1.5704;-0.8152;-1.9218;-2.7133;0.0;4.26;26.21;25.5;64.1;62.67;-96.72;0.0;64.574;39.468437;-0.341683;25.6;NaN;5.85;3.3;107.92;13 / 33;22514;2021-10-20 19:30:00:096
2.199;1.709;-5.2151;3.2082;-4.1803;-8.2696;-11.1855;-16.3705;1.5704;-0.8152;-1.9218;-2.7133;0.0;4.26;26.21;25.5;64.1;62.67;-96.72;0.0;64.574;39.468437;-0.341683;25.6;NaN;5.85;3.3;107.92;13 / 33;22565;2021-10-20 19:30:00:147
1.6301;-2.297;-0.294;-9.0644;-3.6727;-0.7183;3.2053;-9.1009;1.1665;0.418;-3.031;-6.0756;0.0;6.06;27.11;25.8;64.1;62.67;-96.72;0.0;64.574;39.468437;-0.341683;25.6;NaN;5.85;3.3;107.92;13 / 33;22615;2021-10-20 19:30:00:197
12.32;-24.5411;-8.274;-9.0644;-3.6727;-0.7183;1.3367;5.5814;-4.2611;0.418;-3.031;-6.0756;0.0;6.06;27.11;25.8;64.1;62.67;-96.72;0.0;64.574;39.468437;-0.341683;25.6;NaN;5.85;3.3;107.92;13 / 33;22664;2021-10-20 19:30:00:246
27.876;-41.3261;-13.119;-9.5912;-1.9106;-0.7614;-0.6621;48.1166;1.7966;0.0601;-1.8672;0.2107;0.0;5.51;23.89;30.24;303.02;21.99;94.53;0.0;64.574;39.468437;-0.341683;25.6;NaN;5.85;3.3;107.92;13 / 33;22715;2021-10-20 19:30:00:297
27.876;-41.3261;-13.119;-7.3933;-5.2912;-3.6727;-0.6621;48.1166;1.7966;-0.4177;0.3799;1.8227;0.0;3.24;17.21;37.14;277.13;32.66;116.42;0.0;64.574;39.468437;-0.341683;25.6;NaN;5.85;3.3;107.92;13 / 33;22765;2021-10-20 19:30:00:347
-3.999;-0.2599;5.45;2.3607;7.197;6.2345;5.3226;-0.8828;-1.059;-0.4177;0.3799;1.8227;0.0;3.24;17.21;37.14;277.13;32.66;116.42;0.0;63.941;39.468437;-0.341683;25.6;NaN;5.85;3.3;107.92;13 / 33;22814;2021-10-20 19:30:00:396
-14.1;6.984;9.497;4.2713;8.6048;1.9728;17.6198;-12.2777;-13.5098;-0.1515;1.603;2.0387;0.0;3.41;12.06;39.96;277.13;32.66;116.42;0.0;63.941;39.468437;-0.341683;25.6;NaN;5.85;3.3;107.92;13 / 33;22865;2021-10-20 19:30:00:447
-0.648;-4.298;-0.832;4.2713;8.6048;1.9728;13.0503;-14.0652;-3.3749;4.8877;1.4996;8.4215;0.0;5.94;12.41;37.44;112.13;-61.33;-65.21;0.0;63.941;39.468437;-0.341683;25.6;NaN;5.85;3.3;107.92;13 / 33;22914;2021-10-20 19:30:00:496
18.45;-22.933;-15.6229;-6.8761;-5.0757;-4.8123;13.0503;-14.0652;-3.3749;4.8877;1.4996;8.4215;0.0;5.94;12.41;37.44;112.13;-61.33;-65.21;0.0;63.941;39.468437;-0.341683;25.6;NaN;5.85;3.3;107.92;13 / 33;22964;2021-10-20 19:30:00:546
-14.57;-12.923;-12.2569;0.5986;8.078;5.5306;-12.8178;-3.2913;-7.9325;4.3746;1.2783;7.4047;0.0;4.86;14.16;34.74;112.13;-61.33;-65.21;0.0;63.941;39.468426;-0.34165;25.6;NaN;5.99;3.3;115.15;14 / 33;23014;2021-10-20 19:30:00:596
-14.57;-12.923;-12.2569;-9.3709;2.3032;-1.743;2.7652;9.368;6.6267;4.3746;1.2783;7.4047;0.0;4.86;14.16;34.74;112.13;-61.33;-65.21;0.0;63.941;39.468426;-0.34165;25.6;NaN;5.99;3.3;115.15;14 / 33;23064;2021-10-20 19:30:00:646
-6.788;-24.285;-2.2519;-7.3358;-6.2201;1.9154;2.7652;9.368;6.6267;-0.1409;0.3009;-2.1638;0.0;2.04;14.34;33.79;295.16;-13.58;100.54;0.0;65.052;39.468426;-0.34165;25.6;NaN;5.99;3.3;115.15;14 / 33;23114;2021-10-20 19:30:00:696
13.265;-29.97;-6.218;-7.3358;-6.2201;1.9154;-22.83;16.336;-3.8236;-0.6542;0.2724;-1.1417;0.0;1.2;17.76;31.69;300.56;39.37;75.37;0.0;65.052;39.468426;-0.34165;25.6;NaN;5.99;3.3;115.15;14 / 33;23165;2021-10-20 19:30:00:747
5.388;-8.6;-4.4441;-7.5896;-3.1891;-5.3295;-6.1275;4.3947;12.0391;-0.6542;0.2724;-1.1417;0.0;1.2;17.76;31.69;300.56;39.37;75.37;0.0;65.052;39.468426;-0.34165;25.6;NaN;5.99;3.3;115.15;14 / 33;23215;2021-10-20 19:30:00:797
13.1651;7.6811;0.83;4.4915;-8.7101;-0.3879;-18.164;-19.581;2.1381;-1.7044;-0.5892;-1.9832;0.0;3.96;22.31;28.56;68.64;62.63;-94.94;0.0;65.052;39.468426;-0.34165;25.6;NaN;5.99;3.3;115.15;14 / 33;23264;2021-10-20 19:30:00:846
0.098;-0.471;-2.941;-1.0965;-0.9481;-9.6965;-18.164;-19.581;2.1381;-1.1613;-3.567;-4.6006;0.0;6.0;24.41;26.76;7.85;5.55;173.55;0.0;65.052;39.468426;-0.34165;25.6;NaN;5.99;3.3;115.15;14 / 33;23314;2021-10-20 19:30:00:896
8.621;-11.762;2.0051;-8.6239;-4.2856;1.8675;4.388;-8.2578;2.8063;-1.1613;-3.567;-4.6006;0.0;6.0;24.41;26.76;7.85;5.55;173.55;0.0;65.052;39.468426;-0.34165;25.6;NaN;5.99;3.3;115.15;14 / 33;23365;2021-10-20 19:30:00:947
8.621;-11.762;2.0051;-9.4236;-2.5331;-0.9912;-1.6774;4.8618;-2.7954;0.2523;-1.6794;-4.018;0.0;5.1;23.29;27.79;306.64;25.91;77.78;0.0;62.808;39.468426;-0.34165;25.6;NaN;5.99;3.3;115.15;14 / 33;23414;2021-10-20 19:30:00:996
6.5051;-51.0701;-2.096;-6.3925;-6.3734;-3.8403;-0.132;43.718;0.7745;-0.2535;0.3615;1.9284;0.0;5.1;23.29;27.79;306.64;25.91;77.78;0.0;62.808;39.468426;-0.34165;25.6;NaN;5.99;3.3;115.15;14 / 33;23464;2021-10-20 19:30:01:046
3.159;-9.426;-1.7591;-6.3925;-6.3734;-3.8403;-0.132;43.718;0.7745;-0.2535;0.3615;1.9284;0.0;1.5;17.51;31.5;274.04;40.52;121.0;0.0;62.808;39.468426;-0.34165;25.6;NaN;5.99;3.3;115.15;14 / 33;23515;2021-10-20 19:30:01:097
-15.407;0.1721;13.727;-1.1636;6.5314;7.2209;7.1122;-3.9566;-7.7171;-0.3813;1.0531;1.5062;0.0;-0.3;11.76;35.1;274.04;40.52;121.0;0.0;62.808;39.468426;-0.34165;25.6;NaN;5.99;3.3;115.15;14 / 33;23564;2021-10-20 19:30:01:146
-12.413;5.993;7.391;5.4348;6.924;4.3287;18.1335;-14.4944;-13.0646;-0.3813;1.0531;1.5062;0.0;-0.3;11.76;35.1;274.04;40.52;121.0;0.0;62.808;39.468426;-0.34165;25.6;NaN;5.99;3.3;115.15;14 / 33;23614;2021-10-20 19:30:01:196
13.871;-17.2721;-12.978;-5.3199;-7.1108;-4.1563;-8.99;-2.4365;8.3359;5.563;2.3541;6.1813;0.0;0.6;11.59;34.69;105.55;-44.9;-51.46;0.0;62.808;39.468426;-0.34165;25.6;NaN;5.99;3.3;115.15;14 / 33;23665;2021-10-20 19:30:01:247
13.871;-17.2721;-12.978;-3.8499;-5.3151;7.288;-8.99;-2.4365;8.3359;-0.6519;2.9363;1.738;0.0;0.36;14.81;31.69;331.86;32.82;27.85;0.0;62.808;39.468426;-0.34165;25.6;NaN;5.99;3.3;115.15;14 / 33;23715;2021-10-20 19:30:01:297
-21.7429;-2.2661;-2.704;-5.2481;-3.1125;7.6806;20.7008;-7.1632;5.2026;-0.6519;2.9363;1.738;0.0;0.36;14.81;31.69;331.86;32.82;27.85;0.0;65.328;39.468426;-0.34165;25.6;NaN;5.99;3.3;115.15;14 / 33;23764;2021-10-20 19:30:01:346
-3.4849;-21.37;-1.005;-5.2481;-3.1125;7.6806;20.7008;-7.1632;5.2026;-1.2911;0.3209;-2.1979;0.0;-3.24;15.84;30.66;331.86;32.82;27.85;0.0;65.328;39.468426;-0.34165;25.6;NaN;5.99;3.3;115.15;14 / 33;23814;2021-10-20 19:30:01:396
19.362;-23.388;3.248;-9.2751;-2.7438;1.6281;2.6847;13.9051;0.8627;0.8775;0.8745;-0.6332;0.0;-3.24;15.84;30.66;331.86;32.82;27.85;0.0;65.328;39.468426;-0.34165;25.6;NaN;5.99;3.3;115.15;14 / 33;23865;2021-10-20 19:30:01:447
6.594;-13.993;-9.421;-8.7963;-1.6424;-4.0127;-14.2968;20.1739;9.5131;0.8775;0.8745;-0.6332;0.0;-5.59;18.41;28.39;307.4;16.24;80.04;0.0;65.328;39.468426;-0.34165;25.6;NaN;5.99;3.3;115.15;14 / 33;23915;2021-10-20 19:30:01:497
17.255;9.8831;-0.4661;0.0096;-9.6965;-1.4653;-5.0808;-0.4692;5.1072;-1.5025;0.1811;-1.0864;0.0;-1.86;23.64;23.04;307.4;16.24;80.04;0.0;65.328;39.468426;-0.34165;25.6;NaN;5.99;3.3;115.15;14 / 33;23964;2021-10-20 19:30:01:546
17.255;9.8831;-0.4661;0.1532;-3.7541;-9.0597;-5.0808;-0.4692;5.1072;-1.5025;0.1811;-1.0864;0.0;-1.86;23.64;23.04;307.4;16.24;80.04;0.0;65.328;39.46841;-0.341617;25.7;NaN;6.06;3.3;108.24;15 / 33;24014;2021-10-20 19:30:01:596
1.0121;-0.4451;-4.7411;-1.968;-3.1699;-9.0692;0.5167;-9.3971;6.4263;-0.5281;-3.3414;-3.5056;0.0;1.74;25.61;20.46;8.12;22.51;-179.03;0.0;65.433;39.46841;-0.341617;25.7;NaN;6.06;3.3;108.24;15 / 33;24064;2021-10-20 19:30:01:646
1.223;-5.723;-0.861;-1.968;-3.1699;-9.0692;4.9435;-7.2131;2.3142;1.1375;-2.2707;-5.9833;0.0;3.0;24.49;22.86;352.72;18.86;167.76;0.0;65.433;39.46841;-0.341617;25.7;NaN;6.06;3.3;108.24;15 / 33;24115;2021-10-20 19:30:01:697
15.888;-33.759;-7.269;-7.8721;-5.6838;-1.3934;-3.8277;9.3248;1.7613;1.1375;-2.2707;-5.9833;0.0;3.0;24.49;22.86;352.72;18.86;167.76;0.0;65.433;39.46841;-0.341617;25.7;NaN;6.06;3.3;108.24;15 / 33;24165;2021-10-20 19:30:01:747
23.117;-27.873;-12.8051;-9.1746;-3.3136;-1.0199;-3.8277;9.3248;1.7613;-0.3752;0.2857;2.4881;0.0;0.9;20.21;28.39;302.18;19.75;96.34;0.0;65.433;39.46841;-0.341617;25.7;NaN;6.06;3.3;108.24;15 / 33;24215;2021-10-20 19:30:01:797
-6.3761;0.354;6.417;-6.3829;3.304;6.675;-16.7603;20.496;11.5911;-0.5442;0.8212;1.5513;0.0;0.9;20.21;28.39;302.18;19.75;96.34;0.0;65.433;39.46841;-0.341617;25.7;NaN;6.06;3.3;108.24;15 / 33;24264;2021-10-20 19:30:01:846
-6.3761;0.354;6.417;2.0255;7.4268;6.0813;17.9239;-8.1646;-9.3049;-0.5442;0.8212;1.5513;0.0;-2.64;14.76;33.36;284.64;-19.68;43.72;0.0;65.433;39.46841;-0.341617;25.7;NaN;6.06;3.3;108.24;15 / 33;24314;2021-10-20 19:30:01:896
-14.6749;7.269;6.177;1.2306;8.6957;4.367;17.9239;-8.1646;-9.3049;0.4511;2.7156;2.6891;0.0;-2.29;13.99;34.14;139.49;-49.2;-18.42;0.0;63.599;39.46841;-0.341617;25.7;NaN;6.06;3.3;108.24;15 / 33;24364;2021-10-20 19:30:01:946
1.6061;-5.249;-1.9309;1.2306;8.6957;4.367;8.7465;-10.3958;-1.8057;0.4511;2.7156;2.6891;0.0;-2.29;13.99;34.14;139.49;-49.2;-18.42;0.0;63.599;39.46841;-0.341617;25.7;NaN;6.06;3.3;108.24;15 / 33;24414;2021-10-20 19:30:01:996
22.0661;-19.2949;-7.4149;-6.7086;-3.8547;-6.0286;-14.833;14.0444;24.1766;4.034;1.8601;6.1065;0.0;0.41;16.91;31.99;139.49;-49.2;-18.42;0.0;63.599;39.46841;-0.341617;25.7;NaN;6.06;3.3;108.24;15 / 33;24464;2021-10-20 19:30:02:046
0.461;-9.533;20.0891;-3.4237;7.0198;-5.9328;-14.833;14.0444;24.1766;-2.75;1.0707;-1.0392;0.0;-3.06;16.74;31.09;328.92;-45.7;150.01;0.0;63.599;39.46841;-0.341617;25.7;NaN;6.06;3.3;108.24;15 / 33;24514;2021-10-20 19:30:02:096
7.2671;-24.2111;1.79;-9.7827;0.6991;-0.0192;-1.1023;-0.0642;-18.1076;-2.75;1.0707;-1.0392;0.0;-3.06;16.74;31.09;328.92;-45.7;150.01;0.0;63.599;39.46841;-0.341617;25.7;NaN;6.06;3.3;108.24;15 / 33;24564;2021-10-20 19:30:02:146
7.2671;-24.2111;1.79;-8.5281;-4.64;-1.403;-7.1722;14.4984;-0.3782;-0.7312;0.5529;-1.026;0.0;-6.84;17.76;29.89;328.92;-45.7;150.01;0.0;63.599;39.46841;-0.341617;25.7;NaN;6.06;3.3;108.24;15 / 33;24614;2021-10-20 19:30:02:196
6.596;-26.985;-14.83;-8.5281;-4.64;-1.403;-4.9443;8.1837;9.294;-0.5699;0.2005;-1.2691;0.0;-6.84;17.76;29.89;328.92;-45.7;150.01;0.0;63.599;39.46841;-0.341617;25.7;NaN;6.06;3.3;108.24;15 / 33;24664;2021-10-20 19:30:02:246
10.512;-2.9171;-2.218;-2.5714;-9.2608;-1.9441;-4.9443;8.1837;9.294;-0.5699;0.2005;-1.2691;0.0;-3.19;23.59;25.26;309.35;28.23;99.34;0.0;64.731;39.46841;-0.341617;25.7;NaN;6.06;3.3;108.24;15 / 33;24714;2021-10-20 19:30:02:296
5.522;1.0121;-2.451;1.6185;-8.849;-3.9121;-12.8617;-16.6548;1.599;-0.5298;-2.1326;-2.9465;0.0;1.5;27.36;21.6;120.3;64.43;-157.52;0.0;64.731;39.46841;-0.341617;25.7;NaN;6.06;3.3;108.24;15 / 33;24765;2021-10-20 19:30:02:347
0.438;0.7421;-1.598;3.9887;-2.3655;-8.6431;3.2507;-8.2195;6.5138;-0.5298;-2.1326;-2.9465;0.0;1.5;27.36;21.6;120.3;64.43;-157.52;0.0;64.731;39.46841;-0.341617;25.7;NaN;6.06;3.3;108.24;15 / 33;24814;2021-10-20 19:30:02:396
8.231;-12.8801;0.584;-8.26;-5.2768;0.3687;3.2806;-0.2044;-3.7813;1.1606;-3.1907;-6.178;0.0;2.76;27.11;21.96;28.84;13.96;-155.23;0.0;64.731;39.46841;-0.341617;25.7;NaN;6.06;3.3;108.24;15 / 33;24864;2021-10-20 19:30:02:446
8.93;-53.655;-3.489;-9.6534;-1.6041;-0.6273;3.2806;-0.2044;-3.7813;0.1214;-2.2631;0.7318;0.0;1.14;23.89;25.56;28.84;13.96;-155.23;0.0;64.731;39.46841;-0.341617;25.7;NaN;6.06;3.3;108.24;15 / 33;24914;2021-10-20 19:30:02:496
8.93;-53.655;-3.489;-9.6534;-1.6041;-0.6273;-2.1266;46.714;2.1136;0.1214;-2.2631;0.7318;0.0;1.14;23.89;25.56;28.84;13.96;-155.23;0.0;64.731;39.46841;-0.341617;25.7;NaN;6.06;3.3;108.24;15 / 33;24964;2021-10-20 19:30:02:546
3.947;-9.8231;-0.72;-9.0836;-3.6392;-0.656;8.716;-3.7109;-7.0579;-0.2128;0.1086;1.5462;0.0;-1.8;18.06;30.66;298.16;21.78;94.13;0.0;63.43;39.4684;-0.341572;25.6;NaN;6.46;3.3;111.75;16 / 33;25014;2021-10-20 19:30:02:596
-13.442;3.0041;11.3651;1.6472;7.3837;6.2441;8.716;-3.7109;-7.0579;-0.2885;1.9718;1.9591;0.0;-1.8;18.06;30.66;298.16;21.78;94.13;0.0;63.43;39.4684;-0.341572;25.6;NaN;6.46;3.3;111.75;16 / 33;25065;2021-10-20 19:30:02:647
-13.7441;6.735;8.3201;3.7876;7.7381;4.6783;15.746;-11.6204;-15.0511;-0.2885;1.9718;1.9591;0.0;-0.66;14.59;33.36;146.07;-48.83;-14.78;0.0;63.43;39.4684;-0.341572;25.6;NaN;6.46;3.3;111.75;16 / 33;25115;2021-10-20 19:30:02:697
12.813;-13.452;-12.02;-5.9616;-5.679;-5.3295;8.7863;-9.7993;-1.4761;5.6413;2.3848;6.9941;0.0;1.91;15.96;32.29;146.07;-48.83;-14.78;0.0;63.43;39.4684;-0.341572;25.6;NaN;6.46;3.3;111.75;16 / 33;25164;2021-10-20 19:30:02:746
-3.851;-14.6269;22.959;-5.2146;1.3695;8.193;-23.0286;18.2677;29.5973;-2.8335;0.5917;-1.7484;0.0;1.91;15.96;32.29;146.07;-48.83;-14.78;0.0;63.43;39.4684;-0.341572;25.6;NaN;6.46;3.3;111.75;16 / 33;25214;2021-10-20 19:30:02:796
-3.851;-14.6269;22.959;-5.2146;1.3695;8.193;-23.0286;18.2677;29.5973;-2.8335;0.5917;-1.7484;0.0;-0.19;17.29;30.24;309.54;-8.03;32.48;0.0;63.43;39.4684;-0.341572;25.6;NaN;6.46;3.3;111.75;16 / 33;25265;2021-10-20 19:30:02:847
8.8781;-8.332;3.2;-6.4931;-6.9145;2.4852;8.0262;-15.3363;-19.9632;-1.5811;0.2633;-1.3485;0.0;-4.14;18.11;29.89;310.81;44.84;69.06;0.0;66.059;39.4684;-0.341572;25.6;NaN;6.46;3.3;111.75;16 / 33;25315;2021-10-20 19:30:02:897
14.258;-26.5759;0.299;-8.6431;-4.6352;0.091;-17.9689;27.2984;-2.6671;-1.5811;0.2633;-1.3485;0.0;-4.14;18.11;29.89;310.81;44.84;69.06;0.0;66.059;39.4684;-0.341572;25.6;NaN;6.46;3.3;111.75;16 / 33;25364;2021-10-20 19:30:02:946
3.939;-12.408;-4.935;-8.7388;-2.7773;-3.4764;-3.0694;2.7056;6.1732;0.018;0.7865;-0.348;0.0;-3.0;22.61;26.89;308.98;28.2;89.4;0.0;66.059;39.4684;-0.341572;25.6;NaN;6.46;3.3;111.75;16 / 33;25414;2021-10-20 19:30:02:996
12.834;5.433;-0.916;3.8068;-9.0118;-0.6416;-3.0694;2.7056;6.1732;-1.1366;-0.9008;-1.7264;0.0;-3.0;22.61;26.89;308.98;28.2;89.4;0.0;66.059;39.4684;-0.341572;25.6;NaN;6.46;3.3;111.75;16 / 33;25465;2021-10-20 19:30:03:047
2.5421;0.8801;-4.1479;1.7334;-5.0374;-8.2313;-10.7721;-14.9933;1.4638;-1.1366;-0.9008;-1.7264;0.0;2.51;26.81;22.44;65.77;66.81;-99.57;0.0;66.059;39.4684;-0.341572;25.6;NaN;6.46;3.3;111.75;16 / 33;25514;2021-10-20 19:30:03:096
2.5421;0.8801;-4.1479;1.7334;-5.0374;-8.2313;1.7197;-9.701;3.7859;0.1691;-4.2349;-4.6937;0.0;4.44;27.19;22.2;65.77;66.81;-99.57;0.0;66.059;39.4684;-0.341572;25.6;NaN;6.46;3.3;111.75;16 / 33;25564;2021-10-20 19:30:03:146
4.433;-5.9171;4.0181;-6.9001;-5.1667;4.6735;-3.1266;7.8466;-2.0362;0.9551;-1.5741;-3.1086;0.0;4.44;27.19;22.2;65.77;66.81;-99.57;0.0;66.059;39.4684;-0.341572;25.6;NaN;6.46;3.3;111.75;16 / 33;25615;2021-10-20 19:30:03:197
6.426;-35.677;-2.3051;-9.6343;-1.7334;-0.6225;-3.1266;7.8466;-2.0362;0.9551;-1.5741;-3.1086;0.0;3.11;24.19;25.99;319.08;31.8;55.89;0.0;62.504;39.4684;-0.341572;25.6;NaN;6.46;3.3;111.75;16 / 33;25664;2021-10-20 19:30:03:246
17.7581;-17.3921;-9.744;-6.3877;-6.5218;-3.5817;-11.2934;10.0762;8.6528;0.9551;-1.5741;-3.1086;0.0;-0.06;17.64;31.2;277.08;41.69;119.28;0.0;62.504;39.4684;-0.341572;25.6;NaN;6.46;3.3;111.75;16 / 33;25714;2021-10-20 19:30:03:296
-10.364;0.083;8.636;0.0575;7.5322;6.2824;8.7648;-3.3005;-6.9213;0.9551;-1.5741;-3.1086;0.0;-0.06;17.64;31.2;277.08;41.69;119.28;0.0;62.504;39.4684;-0.341572;25.6;NaN;6.46;3.3;111.75;16 / 33;25765;2021-10-20 19:30:03:347
-16.434;7.896;8.741;3.8259;7.9727;4.2377;8.7648;-3.3005;-6.9213;-0.4444;1.3156;1.6862;0.0;0.0;13.14;34.39;277.08;41.69;119.28;0.0;62.504;39.4684;-0.341572;25.6;NaN;6.46;3.3;111.75;16 / 33;25815;2021-10-20 19:30:03:397
-16.434;7.896;8.741;3.8259;7.9727;4.2377;21.0504;-16.5328;-8.5831;5.3881;3.0639;6.7915;0.0;0.0;13.14;34.39;277.08;41.69;119.28;0.0;62.504;39.4684;-0.341572;25.6;NaN;6.46;3.3;111.75;16 / 33;25864;2021-10-20 19:30:03:446
8.3171;-7.5079;-3.159;-6.3303;-7.0054;-2.6528;-22.3678;17.3892;21.5274;5.3881;3.0639;6.7915;0.0;2.46;14.04;34.56;267.85;45.59;112.74;0.0;62.504;39.4684;-0.341572;25.6;NaN;6.46;3.3;111.75;16 / 33;25914;2021-10-20 19:30:03:496
9.3731;-5.799;17.736;-2.7198;-4.4005;8.3318;-22.3678;17.3892;21.5274;3.2031;2.4162;5.5177;0.0;0.71;15.96;33.9;338.14;26.66;18.08;0.0;65.351;39.4684;-0.341572;25.6;NaN;6.46;3.3;111.75;16 / 33;25965;2021-10-20 19:30:03:547
21.4301;-17.0659;32.352;-9.1411;0.9768;-3.4141;12.5466;0.6737;0.9993;-0.1445;0.1706;-2.5077;0.0;0.71;15.96;33.9;338.14;26.66;18.08;0.0;65.351;39.468388;-0.341527;25.6;NaN;6.87;3.3;106.52;16 / 33;26015;2021-10-20 19:30:03:597
14.084;-18.718;8.844;-7.0916;-6.7038;0.9768;5.422;15.6732;4.27;-0.1445;0.1706;-2.5077;0.0;-2.59;16.86;33.6;338.14;26.66;18.08;0.0;65.351;39.468388;-0.341527;25.6;NaN;6.87;3.3;106.52;16 / 33;26065;2021-10-20 19:30:03:647
1.8041;-22.574;-11.077;-7.0916;-6.7038;0.9768;5.422;15.6732;4.27;0.85;0.645;-0.8282;0.0;-2.4;21.24;30.24;303.49;43.12;82.16;0.0;65.351;39.468388;-0.341527;25.6;NaN;6.87;3.3;106.52;16 / 33;26114;2021-10-20 19:30:03:696
17.04;4.1741;-1.208;-7.4412;-5.2337;-3.6583;-0.8264;13.0972;13.4213;-2.0772;-0.3242;-0.9705;0.0;-2.4;21.24;30.24;303.49;43.12;82.16;0.0;65.351;39.468388;-0.341527;25.6;NaN;6.87;3.3;106.52;16 / 33;26165;2021-10-20 19:30:03:747
17.04;4.1741;-1.208;5.0182;-8.4228;0.2346;-15.2335;-13.7046;2.5988;-2.0772;-0.3242;-0.9705;0.0;1.44;26.04;26.34;303.49;43.12;82.16;0.0;65.351;39.468388;-0.341527;25.6;NaN;6.87;3.3;106.52;16 / 33;26215;2021-10-20 19:30:03:797
2.312;0.533;-7.341;-0.2825;-0.5411;-9.7875;1.492;-9.5611;7.8159;-0.8151;-3.6333;-3.5644;0.0;1.44;26.04;26.34;303.49;43.12;82.16;0.0;65.932;39.468388;-0.341527;25.6;NaN;6.87;3.3;106.52;16 / 33;26264;2021-10-20 19:30:03:846
-0.126;-3.87;-1.7921;-7.2018;-4.9752;4.4245;1.492;-9.5611;7.8159;-0.8151;-3.6333;-3.5644;0.0;3.06;27.19;25.14;5.09;3.16;178.35;0.0;65.932;39.468388;-0.341527;25.6;NaN;6.87;3.3;106.52;16 / 33;26315;2021-10-20 19:30:03:897
11.9801;-28.9961;-9.593;-9.6869;-1.4988;-0.2969;1.7724;1.1624;-5.1872;0.8064;-1.8289;-5.0508;0.0;1.8;25.26;27.19;319.18;30.48;58.44;0.0;65.932;39.468388;-0.341527;25.6;NaN;6.87;3.3;106.52;16 / 33;26365;2021-10-20 19:30:03:947
32.342;-32.5151;-17.102;-9.6869;-1.4988;-0.2969;0.2866;36.3782;0.2585;-0.5486;0.6281;2.5475;0.0;1.8;25.26;27.19;319.18;30.48;58.44;0.0;65.932;39.468388;-0.341527;25.6;NaN;6.87;3.3;106.52;16 / 33;26415;2021-10-20 19:30:03:997
-4.095;0.5141;8.684;-7.2496;-5.6359;-3.4429;-4.7235;6.4826;5.5096;-0.5486;0.6281;2.5475;0.0;-2.1;19.01;32.34;286.29;35.08;115.4;0.0;65.932;39.468388;-0.341527;25.6;NaN;6.87;3.3;106.52;16 / 33;26465;2021-10-20 19:30:04:047
-4.095;0.5141;8.684;0.589;6.7038;7.1347;-4.7235;6.4826;5.5096;-0.6341;0.8834;1.3347;0.0;-2.76;12.84;35.76;286.29;35.08;115.4;0.0;65.932;39.468388;-0.341527;25.6;NaN;6.87;3.3;106.52;16 / 33;26515;2021-10-20 19:30:04:097
-15.7999;5.423;7.343;3.1077;9.0309;2.2218;19.1847;-9.7275;-15.4727;3.0832;3.4997;3.8679;0.0;-2.76;12.84;35.76;286.29;35.08;115.4;0.0;65.932;39.468388;-0.341527;25.6;NaN;6.87;3.3;106.52;16 / 33;26565;2021-10-20 19:30:04:147
0.8321;-4.1689;-1.029;-6.0382;-6.9959;-3.2896;0.762;-5.1687;3.5636;3.0832;3.4997;3.8679;0.0;0.3;13.14;35.04;115.67;-67.07;-54.44;0.0;65.932;39.468388;-0.341527;25.6;NaN;6.87;3.3;106.52;16 / 33;26615;2021-10-20 19:30:04:197
19.0481;-26.351;-15.003;-5.0374;-4.8028;6.9097;-20.1228;17.2226;18.4372;2.5275;2.5955;4.6866;0.0;0.3;13.14;35.04;115.67;-67.07;-54.44;0.0;64.357;39.468388;-0.341527;25.6;NaN;6.87;3.3;106.52;16 / 33;26664;2021-10-20 19:30:04:246
-19.563;-3.432;1.577;-5.0374;-4.8028;6.9097;-20.1228;17.2226;18.4372;2.5275;2.5955;4.6866;0.0;-0.24;16.91;32.46;325.55;29.32;36.09;0.0;64.357;39.468388;-0.341527;25.6;NaN;6.87;3.3;106.52;16 / 33;26714;2021-10-20 19:30:04:296
4.734;-31.926;2.2061;-0.1867;-1.4796;9.6917;-2.7963;-9.2769;-15.7507;-2.1429;0.7297;-1.1789;0.0;-4.44;17.59;31.8;325.55;29.32;36.09;0.0;64.357;39.468388;-0.341527;25.6;NaN;6.87;3.3;106.52;16 / 33;26764;2021-10-20 19:30:04:346
4.734;-31.926;2.2061;-8.442;-4.7166;1.6281;-15.6811;19.0369;-3.9823;0.136;0.7408;-0.7634;0.0;-4.44;17.59;31.8;325.55;29.32;36.09;0.0;64.357;39.468388;-0.341527;25.6;NaN;6.87;3.3;106.52;16 / 33;26814;2021-10-20 19:30:04:396
10.0481;-27.0551;-13.8799;-8.509;-2.7964;-3.9887;-15.6811;19.0369;-3.9823;0.136;0.7408;-0.7634;0.0;-5.29;20.76;29.46;310.38;28.75;79.08;0.0;64.357;39.468388;-0.341527;25.6;NaN;6.87;3.3;106.52;16 / 33;26864;2021-10-20 19:30:04:446
10.275;-2.6231;-3.5659;4.051;-8.9112;-0.5794;-4.6184;0.4407;8.5379;-0.9681;-0.1738;-1.474;0.0;0.24;26.46;23.89;71.91;65.33;-98.14;0.0;64.357;39.468388;-0.341527;25.6;NaN;6.87;3.3;106.52;16 / 33;26914;2021-10-20 19:30:04:496
