sep=;
ACCELEROMETER X (m/s²);ACCELEROMETER Y (m/s²);ACCELEROMETER Z (m/s²);GRAVITY X (m/s²);GRAVITY Y (m/s²);GRAVITY Z (m/s²);LINEAR ACCELERATION X (m/s²);LINEAR ACCELERATION Y (m/s²);LINEAR ACCELERATION Z (m/s²);GYROSCOPE X (rad/s);GYROSCOPE Y (rad/s);GYROSCOPE Z (rad/s);LIGHT (lux);MAGNETIC FIELD X (μT);MAGNETIC FIELD Y (μT);MAGNETIC FIELD Z (μT);ORIENTATION Z (azimuth °);ORIENTATION X (pitch °);ORIENTATION Y (roll °);PROXIMITY (m);SOUND LEVEL (dB);LOCATION Latitude : ;LOCATION Longitude : ;LOCATION Altitude ( m);LOCATION Altitude-google ( m);LOCATION Speed ( Kmh);LOCATION Accuracy ( m);LOCATION ORIENTATION (°);Satellites in range;Time since start in ms ;YYYY-MO-DD HH-MI-SS_SSS
-7.3459;-3.48;6.618;-3.6392;7.0294;5.7844;5.5547;6.8954;-1.8082;0.7264;0.987;-4.7036;0.0;13.31;-20.34;-36.19;319.84;-64.77;-11.36;5.0;36.585;39.468945;-0.340941;69.4;NaN;;17.702;;0 / 34;12;2021-10-20 22:34:39:862
-6.058;-4.547;1.7921;-6.0382;7.6327;1.2163;3.341;8.9263;1.4091;0.9114;0.9032;-4.7406;0.0;13.91;-21.96;-34.86;31.1;-45.81;32.18;5.0;36.585;39.468945;-0.340941;69.4;NaN;;17.702;;0 / 34;32;2021-10-20 22:34:39:882
-4.21;-4.904;-5.835;-6.1579;5.8131;-4.9512;0.8683;9.6954;7.9766;1.151;1.0189;-4.6746;0.0;13.74;-23.64;-33.49;31.1;-45.81;32.18;5.0;36.585;39.468945;-0.340941;69.4;NaN;;17.702;;0 / 34;52;2021-10-20 22:34:39:902
-3.506;-5.1941;-8.346;-4.9704;2.5379;-8.0637;-1.1226;9.7295;14.1239;1.151;1.0189;-4.6746;0.0;13.44;-25.5;-32.21;129.03;-36.34;128.8;5.0;36.585;39.468945;-0.340941;69.4;NaN;;17.702;;0 / 34;72;2021-10-20 22:34:39:922
-2.4;-5.727;-9.198;-5.2577;1.6376;-8.1163;-3.2952;10.1043;15.6147;1.151;1.0189;-4.6746;0.0;13.01;-27.19;-30.84;129.03;-36.34;128.8;5.0;36.585;39.468945;-0.340941;69.4;NaN;;17.702;;0 / 34;92;2021-10-20 22:34:39:942
-0.0761;-6.003;-6.388;-6.8474;0.0;-7.0198;-5.8039;9.8929;13.8263;1.151;1.0189;-4.6746;0.0;12.0;-28.2;-29.46;139.81;-9.61;147.07;5.0;36.585;39.468945;-0.340941;69.4;NaN;;17.702;;0 / 34;112;2021-10-20 22:34:39:962
0.342;-6.2711;-6.0941;-7.0198;-0.4405;-6.8378;-7.7883;9.4726;11.3864;1.151;1.0189;-4.6746;0.0;10.8;-29.7;-28.39;139.81;-9.61;147.07;5.0;36.585;39.468945;-0.340941;69.4;NaN;;17.702;;0 / 34;132;2021-10-20 22:34:39:982
-1.823;-6.525;-7.164;-7.1491;-1.2593;-6.5936;-8.1961;8.7136;10.7579;0.8708;5.7157;-6.168;0.0;10.09;-30.96;-27.54;138.37;2.57;134.25;5.0;36.585;39.468945;-0.340941;69.4;NaN;;17.702;;0 / 34;152;2021-10-20 22:34:40:002
-0.945;-5.9719;-5.835;-7.1012;0.5698;-6.7421;-10.7282;7.4236;7.7147;0.8954;6.7658;-5.8146;0.0;9.9;-31.8;-26.89;138.37;2.57;134.25;5.0;36.585;39.468945;-0.340941;69.4;NaN;;17.702;;0 / 34;172;2021-10-20 22:34:40:022
-1.675;-5.5961;-4.935;-7.3119;2.3463;-6.1004;-8.0237;6.3381;7.0323;1.5128;7.2841;-4.7642;0.0;9.54;-32.29;-26.21;141.68;-3.33;133.51;5.0;36.585;39.468945;-0.340941;69.4;NaN;;17.702;;0 / 34;193;2021-10-20 22:34:40:043
-7.693;-2.592;-0.782;-6.2106;6.2776;-4.2617;-8.0237;6.3381;7.0323;1.9172;6.9922;-3.8589;0.0;9.84;-32.34;-25.69;141.68;-3.33;133.51;5.0;36.585;39.468945;-0.340941;69.4;NaN;;17.702;;0 / 34;212;2021-10-20 22:34:40:062
-12.432;-0.2719;3.075;-1.4365;9.6534;0.9529;-6.028;3.5953;2.8701;1.8266;5.6353;-3.436;0.0;9.84;-32.29;-25.56;43.98;-79.88;56.44;5.0;36.585;39.468945;-0.340941;69.4;NaN;;17.702;;0 / 34;232;2021-10-20 22:34:40:082
-18.0521;2.831;6.477;1.7238;9.1698;3.0167;7.4756;-3.5823;-7.4203;1.8158;3.2244;-2.548;0.0;10.2;-31.86;-25.86;43.98;-79.88;56.44;5.0;36.585;39.468945;-0.340941;69.4;NaN;;17.702;;0 / 34;252;2021-10-20 22:34:40:102
-33.6041;5.2541;10.005;1.47;9.3134;2.7007;19.5543;-6.4548;-9.6389;2.029;0.5826;-0.7648;0.0;10.8;-31.26;-26.59;284.27;-69.25;-29.74;5.0;52.912;39.468945;-0.340941;69.4;NaN;;17.702;;0 / 34;273;2021-10-20 22:34:40:123
-34.77;5.304;13.995;1.494;8.26;5.0757;25.6101;-6.8914;-14.3954;2.0922;-0.9254;0.2779;0.0;12.19;-29.59;-27.71;284.27;-69.25;-29.74;5.0;52.912;39.468945;-0.340941;69.4;NaN;;17.702;;0 / 34;292;2021-10-20 22:34:40:142
-25.176;5.412;19.931;1.8387;6.8331;6.79;17.0153;-6.8613;-20.1756;2.1451;-1.8303;0.6533;0.0;13.14;-27.36;-29.04;285.61;-57.36;-16.4;5.0;52.912;39.468945;-0.340941;69.4;NaN;;17.702;;0 / 34;312;2021-10-20 22:34:40:162
-16.5109;5.964;20.1161;2.3176;5.8179;7.5465;17.0153;-6.8613;-20.1756;2.1449;-2.3242;0.8385;0.0;13.74;-25.14;-30.49;285.61;-57.36;-16.4;5.0;52.912;39.468945;-0.340941;69.4;NaN;;17.702;;0 / 34;332;2021-10-20 22:34:40:182
-4.7321;8.013;9.131;6.3829;3.5674;6.5362;-2.6264;-8.5808;-13.5774;2.1145;-2.6143;1.0044;0.0;14.64;-22.69;-31.91;246.57;-24.28;-28.2;5.0;52.912;39.468945;-0.340941;69.4;NaN;;17.702;;0 / 34;352;2021-10-20 22:34:40:202
-4.4899;7.767;5.045;7.3119;4.0558;5.1284;-5.4122;-8.9216;-5.8817;1.8316;-2.6173;1.2199;0.0;15.3;-20.4;-33.49;246.57;-24.28;-28.2;5.0;52.912;39.468945;-0.340941;69.4;NaN;;17.702;;0 / 34;372;2021-10-20 22:34:40:222
-4.842;6.903;3.741;7.3694;5.0853;3.9983;-5.4122;-8.9216;-5.8817;1.2558;-2.4864;1.4944;0.0;16.39;-18.0;-34.61;249.93;-31.24;-61.52;5.0;52.912;39.468945;-0.340941;69.4;NaN;;17.702;;0 / 34;392;2021-10-20 22:34:40:242
-4.0759;6.101;4.038;7.1299;4.5633;4.9512;-4.8471;-7.5823;-2.453;1.2558;-2.4864;1.4944;0.0;17.1;-15.66;-35.59;249.93;-31.24;-61.52;5.0;52.912;39.468945;-0.340941;69.4;NaN;;17.702;;0 / 34;412;2021-10-20 22:34:40:262
-0.067;4.334;4.035;7.2736;-0.5842;6.5505;-7.7764;-4.6878;-2.4106;0.1591;-2.4683;2.0838;0.0;17.7;-13.5;-36.49;249.93;-31.24;-61.52;5.0;52.912;39.468945;-0.340941;69.4;NaN;;17.702;;0 / 34;432;2021-10-20 22:34:40:282
3.2021;3.896;2.0921;6.79;-6.2872;3.2513;-10.5164;-3.3256;-0.5763;-0.6416;-2.6122;2.9858;0.0;17.64;-12.06;-36.96;252.25;3.42;-47.99;5.0;52.912;39.468945;-0.340941;69.4;NaN;;17.702;;0 / 34;452;2021-10-20 22:34:40:302
5.0291;3.719;0.756;5.6695;-7.944;0.972;-13.4676;-2.042;1.4252;-5.7526;0.5464;6.9461;0.0;17.94;-11.29;-37.01;252.25;3.42;-47.99;5.0;52.912;39.468945;-0.340941;69.4;NaN;;17.702;;0 / 34;472;2021-10-20 22:34:40:322
5.8301;3.5591;0.014;5.1236;-8.3606;0.0958;-14.7605;-0.8226;2.2979;-6.0024;3.0643;8.0534;0.0;18.3;-10.69;-36.96;274.13;54.09;-80.27;5.0;52.912;39.468945;-0.340941;69.4;NaN;;17.702;;0 / 34;492;2021-10-20 22:34:40:342
5.139;2.9291;-0.122;4.7501;-8.5808;-0.1149;-13.9095;1.0531;2.2614;-4.4212;3.864;7.9956;0.0;18.84;-10.56;-36.96;274.13;54.09;-80.27;5.0;52.912;39.468945;-0.340941;69.4;NaN;;17.702;;0 / 34;512;2021-10-20 22:34:40:362
4.263;1.974;1.055;4.1132;-8.5808;2.375;-12.6655;3.1232;1.3485;-3.2043;4.1621;8.1528;0.0;19.31;-10.44;-36.66;288.97;61.03;-91.39;5.0;52.912;39.468945;-0.340941;69.4;NaN;;17.702;;0 / 34;532;2021-10-20 22:34:40:382
4.38;2.652;1.685;5.0996;-7.7572;3.1651;-11.3167;4.3595;-0.0112;-2.1237;4.1433;8.5496;0.0;19.31;-10.74;-36.79;288.97;61.03;-91.39;5.0;52.912;39.468945;-0.340941;69.4;NaN;;17.702;;0 / 34;552;2021-10-20 22:34:40:402
1.704;7.2281;4.5551;7.1491;-5.5306;3.8164;-10.2958;3.3985;-1.2973;-1.1637;3.7664;8.4998;0.0;19.01;-11.1;-36.54;257.23;52.27;-58.17;5.0;52.912;39.468945;-0.340941;69.4;NaN;;17.702;;0 / 34;572;2021-10-20 22:34:40:422
-6.548;8.4491;9.9911;5.0039;5.114;6.7086;-5.7114;0.9317;-4.2887;-0.9541;3.3543;7.6315;0.0;18.6;-11.89;-36.49;257.23;52.27;-58.17;5.0;51.538;39.468945;-0.340941;69.4;NaN;;17.702;;0 / 34;592;2021-10-20 22:34:40:442
-19.512;8.315;18.89;2.648;6.8666;6.4835;9.2649;0.4339;-13.3237;-2.677;3.1482;5.5672;0.0;18.54;-12.3;-36.36;268.26;-31.43;-36.72;5.0;51.538;39.468945;-0.340941;69.4;NaN;;17.702;;0 / 34;612;2021-10-20 22:34:40:462
-33.065;4.224;18.9191;1.0199;8.5904;4.616;24.3706;1.4062;-21.4033;-4.61;1.8623;1.8972;0.0;18.41;-12.79;-36.19;268.26;-31.43;-36.72;5.0;51.538;39.468945;-0.340941;69.4;NaN;;17.702;;0 / 34;632;2021-10-20 22:34:40:482
-30.279;2.841;11.489;0.8284;9.2177;3.2465;28.679;4.725;-15.3487;-2.3312;-1.8505;-2.7274;0.0;18.6;-13.8;-35.81;307.85;-61.18;-12.46;5.0;51.538;39.468945;-0.340941;69.4;NaN;;17.702;;0 / 34;652;2021-10-20 22:34:40:502
-25.956;1.646;6.807;0.5363;9.4954;2.3894;21.9689;6.4358;-4.7832;-2.3312;-1.8505;-2.7274;0.0;18.71;-14.94;-35.29;307.85;-61.18;-12.46;5.0;51.538;39.468945;-0.340941;69.4;NaN;;17.702;;0 / 34;672;2021-10-20 22:34:40:522
-19.0099;-0.3439;4.32;-0.2442;9.5433;2.241;15.9231;7.6369;-1.9368;-2.3312;-1.8505;-2.7274;0.0;18.49;-16.26;-34.86;315.03;-75.54;-12.65;5.0;51.538;39.468945;-0.340941;69.4;NaN;;17.702;;0 / 34;692;2021-10-20 22:34:40:542
-14.591;-1.002;4.145;-0.7278;9.3901;2.7485;9.4367;8.2315;-1.2789;-2.3312;-1.8505;-2.7274;0.0;18.41;-17.59;-34.01;315.03;-75.54;-12.65;5.0;51.538;39.468945;-0.340941;69.4;NaN;;17.702;;0 / 34;712;2021-10-20 22:34:40:562
-10.0001;-1.644;3.387;-1.5897;9.1794;3.0694;4.7838;8.4794;-0.7386;1.1109;-1.8336;-4.3257;0.0;18.11;-19.09;-33.41;350.67;-71.16;21.29;5.0;51.538;39.468945;-0.340941;69.4;NaN;;17.702;;0 / 34;732;2021-10-20 22:34:40:582
-8.322;-2.044;1.361;-2.4181;9.4284;1.2163;2.012;8.2702;0.6651;1.4966;-1.6324;-4.338;0.0;17.7;-20.34;-32.46;350.67;-71.16;21.29;5.0;51.538;39.468945;-0.340941;69.4;NaN;;17.702;;0 / 34;752;2021-10-20 22:34:40:602
-7.41;-2.391;-0.428;-2.8539;9.3805;-0.1867;0.2636;8.2248;3.0299;1.4966;-1.6324;-4.338;0.0;17.04;-21.9;-31.44;42.46;-73.98;63.3;5.0;51.538;39.468945;-0.340941;69.4;NaN;;17.702;;0 / 34;772;2021-10-20 22:34:40:622
-5.711;-3.4489;-2.025;-3.9648;8.7436;-2.0111;-1.2339;8.3604;4.2283;1.4966;-1.6324;-4.338;0.0;16.69;-23.59;-30.36;42.46;-73.98;63.3;5.0;51.538;39.468945;-0.340941;69.4;NaN;;17.702;;0 / 34;793;2021-10-20 22:34:40:643
-4.217;-3.9079;-2.814;-5.3343;7.4555;-3.4907;-2.9873;8.5711;4.9153;1.4966;-1.6324;-4.338;0.0;16.09;-25.09;-28.99;107.29;-63.05;116.9;5.0;51.538;39.468945;-0.340941;69.4;NaN;;17.702;;0 / 34;812;2021-10-20 22:34:40:662
-2.163;-4.31;-4.054;-6.8905;1.7095;-6.766;-6.0067;8.5678;6.1172;2.263;0.5265;-4.1099;0.0;15.41;-25.99;-27.66;107.29;-63.05;116.9;5.0;51.538;39.468945;-0.340941;69.4;NaN;;17.702;;0 / 34;832;2021-10-20 22:34:40:682
0.945;-4.459;-5.203;-6.1435;-1.7047;-7.4555;-8.9356;8.1291;6.5167;2.3037;1.2621;-4.3059;0.0;14.81;-26.59;-26.21;133.83;-10.04;134.48;5.0;51.538;39.468945;-0.340941;69.4;NaN;;17.702;;0 / 34;852;2021-10-20 22:34:40:702
3.195;-4.413;-6.9889;-5.2146;-3.0502;-7.7237;-11.5196;7.3946;7.5397;2.2363;2.5527;-4.5605;0.0;14.4;-26.94;-24.79;133.83;-10.04;134.48;5.0;51.538;39.468945;-0.340941;69.4;NaN;;17.702;;0 / 34;872;2021-10-20 22:34:40:722
3.071;-4.325;-7.0541;-4.774;-3.5578;-7.7907;-12.9467;6.4479;7.4171;2.1421;4.2037;-4.6879;0.0;14.34;-27.19;-23.34;132.17;18.12;145.98;5.0;51.538;39.468945;-0.340941;69.4;NaN;;17.702;;0 / 34;892;2021-10-20 22:34:40:742
2.135;-4.377;-6.477;-5.4588;-2.3272;-7.8051;-12.9467;6.4479;7.4171;2.1421;4.2037;-4.6879;0.0;14.21;-27.36;-21.96;132.17;18.12;145.98;5.0;54.26;39.468945;-0.340941;69.4;NaN;;17.702;;0 / 34;912;2021-10-20 22:34:40:762
-4.2889;-2.8961;-2.092;-4.616;8.0972;-3.055;-8.2177;3.793;1.4722;2.2688;5.6823;-3.938;0.0;14.4;-27.66;-20.46;139.96;-4.56;137.74;5.0;54.26;39.468945;-0.340941;69.4;NaN;;17.702;;0 / 34;932;2021-10-20 22:34:40:782
-7.891;-1.8469;-0.9;-2.7246;9.3278;-1.336;-3.1667;2.1459;-1.5179;2.3068;5.2862;-3.286;0.0;14.34;-27.79;-19.26;139.96;-4.56;137.74;5.0;54.26;39.468945;-0.340941;69.4;NaN;;17.702;;0 / 34;952;2021-10-20 22:34:40:802
-12.659;0.809;2.886;0.407;9.6534;1.6712;1.0462;-0.9545;-4.3507;2.2323;4.3128;-2.4318;0.0;14.21;-27.3;-18.36;100.0;-71.98;116.12;5.0;54.26;39.468945;-0.340941;69.4;NaN;;17.702;;0 / 34;972;2021-10-20 22:34:40:822
-20.901;1.847;8.238;0.8236;9.0788;3.62;10.4563;-3.0245;-11.29;2.0851;1.5241;-1.3952;0.0;14.7;-26.89;-17.51;100.0;-71.98;116.12;5.0;54.26;39.468945;-0.340941;69.4;NaN;;17.702;;0 / 34;992;2021-10-20 22:34:40:842
-36.763;6.7061;10.5701;1.7238;9.3326;2.4804;22.9096;-6.268;-15.449;2.167;-1.3075;0.2178;0.0;15.6;-26.1;-16.61;268.42;-68.21;-22.01;5.0;54.26;39.468945;-0.340941;69.4;NaN;;17.702;;0 / 34;1012;2021-10-20 22:34:40:862
-37.9721;7.233;6.752;1.8818;9.5289;1.3647;28.8742;-8.572;-11.5436;2.1515;-2.1856;1.0181;0.0;16.61;-24.84;-15.66;268.42;-68.21;-22.01;5.0;54.26;39.468945;-0.340941;69.4;NaN;;17.702;;0 / 34;1032;2021-10-20 22:34:40:882
-25.4059;7.145;2.0681;2.5426;9.4427;0.7709;21.4584;-8.8956;-5.4416;2.0372;-2.273;1.3256;0.0;17.4;-23.34;-14.89;245.11;-76.29;-54.05;5.0;54.26;39.468945;-0.340941;69.4;NaN;;17.702;;0 / 34;1052;2021-10-20 22:34:40:902
-13.363;6.312;3.65;5.023;7.6758;3.4716;7.8268;-7.4403;-4.9502;1.9814;-2.2814;1.4466;0.0;18.54;-21.79;-14.29;245.11;-76.29;-54.05;5.0;54.26;39.468945;-0.340941;69.4;NaN;;17.702;;0 / 34;1073;2021-10-20 22:34:40:923
-7.2641;6.687;5.175;6.3398;5.5019;5.0757;-1.612;-7.5802;-6.7174;1.9496;-2.3031;1.5253;0.0;19.2;-19.69;-13.99;230.42;-51.5;-55.35;5.0;54.26;39.468945;-0.340941;69.4;NaN;;17.702;;0 / 34;1092;2021-10-20 22:34:40:942
-5.558;6.975;5.78;6.4787;5.047;5.3582;-1.612;-7.5802;-6.7174;1.8358;-2.328;1.6022;0.0;20.1;-17.16;-14.04;230.42;-51.5;-55.35;5.0;54.26;39.468945;-0.340941;69.4;NaN;;17.702;;0 / 34;1112;2021-10-20 22:34:40:962
-5.423;6.762;3.422;7.2688;5.6599;3.3615;-3.8144;-7.4336;-5.7119;1.6015;-2.2737;1.6475;0.0;21.0;-14.46;-14.46;234.53;-34.73;-55.06;5.0;54.26;39.468945;-0.340941;69.4;NaN;;17.702;;0 / 34;1132;2021-10-20 22:34:40:982
-3.904;6.393;1.692;8.3175;4.798;1.9968;-5.0176;-6.6391;-2.8657;0.9945;-1.9969;1.8268;0.0;21.24;-11.64;-15.24;234.53;-34.73;-55.06;5.0;54.26;39.468945;-0.340941;69.4;NaN;;17.702;;0 / 34;1152;2021-10-20 22:34:41:002
-0.05;5.57;0.356;9.5768;1.6137;1.3599;-7.3875;-5.5606;-1.1262;-0.1812;-1.5088;2.237;0.0;21.11;-9.24;-16.44;231.95;-29.29;-76.5;5.0;54.26;39.468945;-0.340941;69.4;NaN;;17.702;;0 / 34;1172;2021-10-20 22:34:41:022
1.5821;5.0291;-0.476;8.6862;-4.3191;-1.4557;-10.0141;-4.4871;-0.1682;-2.7595;-0.5248;3.1173;0.0;20.81;-6.96;-18.24;231.95;-29.29;-76.5;5.0;54.26;39.468945;-0.340941;69.4;NaN;;17.702;;0 / 34;1192;2021-10-20 22:34:41:042
3.126;4.4441;-1.0789;7.0964;-6.4931;-1.9249;-11.9708;-2.8618;0.5805;-7.2149;2.3287;4.3148;0.0;20.64;-5.29;-20.51;289.66;26.12;-99.51;5.0;54.26;39.468945;-0.340941;69.4;NaN;;17.702;;0 / 34;1212;2021-10-20 22:34:41:062
5.225;3.8531;0.524;5.9759;-7.7716;0.2729;-13.5783;-1.1516;0.2787;-7.4004;4.1459;5.0148;0.0;19.99;-3.96;-22.99;289.66;26.12;-99.51;5.0;53.59;39.468945;-0.340941;69.4;NaN;;17.702;;0 / 34;1232;2021-10-20 22:34:41:082
4.6361;3.14;2.762;5.2098;-7.6614;3.2082;-14.2165;0.3018;-2.6533;-6.1425;4.6291;5.4376;0.0;19.31;-3.36;-25.61;294.57;52.41;-87.38;5.0;53.59;39.468945;-0.340941;69.4;NaN;;17.702;;0 / 34;1252;2021-10-20 22:34:41:102
3.542;2.589;3.221;5.023;-6.0094;5.9041;-11.9741;2.4494;-4.6425;-6.1425;4.6291;5.4376;0.0;18.41;-3.3;-27.79;294.57;52.41;-87.38;5.0;53.59;39.468945;-0.340941;69.4;NaN;;17.702;;0 / 34;1272;2021-10-20 22:34:41:122
2.573;2.537;2.463;6.7181;-5.3056;4.7884;-9.8367;3.6166;-3.9037;-6.1425;4.6291;5.4376;0.0;17.59;-4.39;-29.81;253.19;37.78;-40.39;5.0;53.59;39.468945;-0.340941;69.4;NaN;;17.702;;0 / 34;1292;2021-10-20 22:34:41:142
-1.1081;4.7561;2.793;7.9966;2.6528;5.0182;-7.6073;3.5196;-3.4817;-6.1425;4.6291;5.4376;0.0;16.74;-6.19;-31.61;253.19;37.78;-40.39;5.0;53.59;39.468945;-0.340941;69.4;NaN;;17.702;;0 / 34;1312;2021-10-20 22:34:41:162
-5.1791;6.2591;6.3041;5.5737;5.2672;6.1148;-2.5497;2.4024;-5.8892;-6.1425;4.6291;5.4376;0.0;15.84;-7.99;-32.76;259.7;-15.69;-57.89;5.0;53.59;39.468945;-0.340941;69.4;NaN;;17.702;;0 / 34;1332;2021-10-20 22:34:41:182
-12.066;6.6371;11.379;3.3279;6.857;6.1723;5.9527;1.8243;-11.8377;-6.1425;4.6291;5.4376;0.0;15.11;-10.56;-33.49;259.7;-15.69;-57.89;5.0;53.59;39.468945;-0.340941;69.4;NaN;;17.702;;0 / 34;1352;2021-10-20 22:34:41:202
-27.285;6.3641;14.306;2.1165;8.2935;4.7932;17.8847;1.9833;-15.5642;-6.1425;4.6291;5.4376;0.0;14.21;-13.26;-33.41;282.82;-44.36;-28.33;5.0;53.59;39.468945;-0.340941;69.4;NaN;;17.702;;0 / 34;1372;2021-10-20 22:34:41:222
-37.0151;3.887;8.279;1.2689;9.323;2.7677;29.7932;3.7145;-10.1386;-6.1425;4.6291;5.4376;0.0;14.29;-15.84;-32.59;282.82;-44.36;-28.33;5.0;53.59;39.468945;-0.340941;69.4;NaN;;17.702;;0 / 34;1392;2021-10-20 22:34:41:242
-32.8189;2.1851;2.027;0.6129;9.7779;0.4549;31.103;4.9597;-4.585;-6.1425;4.6291;5.4376;0.0;14.81;-18.36;-30.79;299.88;-71.91;-24.63;5.0;53.59;39.468945;-0.340941;69.4;NaN;;17.702;;0 / 34;1412;2021-10-20 22:34:41:262
-26.368;1.038;-0.8179;0.3304;9.7923;-0.4357;23.518;5.969;0.1721;0.9787;-2.4975;-3.915;0.0;15.6;-20.64;-28.74;299.88;-71.91;-24.63;5.0;53.59;39.468945;-0.340941;69.4;NaN;;17.702;;0 / 34;1432;2021-10-20 22:34:41:282
-19.0151;-0.241;-2.4979;-0.1867;9.7157;-1.336;14.7759;6.9888;2.8149;0.9787;-2.4975;-3.915;0.0;16.14;-22.44;-26.46;185.36;-86.8;-142.83;5.0;53.59;39.468945;-0.340941;69.4;NaN;;17.702;;0 / 34;1452;2021-10-20 22:34:41:302
-15.044;-1.0691;-2.2519;-0.8332;9.6726;-1.3982;8.3912;7.5773;3.0195;2.15;-2.0459;-3.6316;0.0;16.91;-23.89;-23.59;185.36;-86.8;-142.83;5.0;53.59;39.468945;-0.340941;69.4;NaN;;17.702;;0 / 34;1472;2021-10-20 22:34:41:322
-11.166;-2.398;-1.527;-1.8244;9.5481;-1.2881;8.3912;7.5773;3.0195;2.4635;-1.797;-3.4899;0.0;18.0;-25.26;-21.06;116.12;-80.45;149.21;5.0;53.59;39.468945;-0.340941;69.4;NaN;;17.702;;0 / 34;1492;2021-10-20 22:34:41:342
-6.941;-3.588;-2.46;-4.5298;8.0876;-3.2082;0.2723;8.7182;2.2744;2.769;-1.4187;-3.3305;0.0;18.79;-26.46;-18.66;116.12;-80.45;149.21;5.0;53.59;39.468945;-0.340941;69.4;NaN;;17.702;;0 / 34;1512;2021-10-20 22:34:41:362
-4.8589;-4.284;-3.894;-5.6982;5.8562;-5.43;-2.3379;9.1989;3.3733;3.1035;-0.8805;-3.1439;0.0;19.5;-27.24;-16.31;110.99;-55.54;125.31;5.0;53.59;39.468945;-0.340941;69.4;NaN;;17.702;;0 / 34;1532;2021-10-20 22:34:41:382
-2.6591;-4.739;-5.517;-6.0047;1.8292;-7.5369;-5.5885;9.4142;5.3058;3.3536;-0.2659;-2.9846;0.0;19.69;-27.96;-14.46;110.99;-55.54;125.31;5.0;63.532;39.468945;-0.340941;69.4;NaN;;17.702;;0 / 34;1552;2021-10-20 22:34:41:402
0.581;-5.512;-6.97;-6.0286;-0.3017;-7.7285;-8.5999;9.4457;6.3931;3.4672;0.5893;-2.9501;0.0;19.61;-28.8;-13.14;139.77;-10.75;141.46;5.0;63.532;39.468945;-0.340941;69.4;NaN;;17.702;;0 / 34;1572;2021-10-20 22:34:41:422
2.063;-5.742;-6.426;-6.292;-2.0207;-7.2496;-8.5999;9.4457;6.3931;3.4672;0.5893;-2.9501;0.0;19.2;-29.7;-11.94;139.77;-10.75;141.46;5.0;63.532;39.468945;-0.340941;69.4;NaN;;17.702;;0 / 34;1592;2021-10-20 22:34:41:442
3.36;-5.9621;-5.3711;-6.7469;-4.0318;-5.8658;-10.9173;9.3006;5.6265;3.5773;1.6642;-3.123;0.0;18.9;-30.54;-11.04;146.34;24.27;131.0;5.0;63.532;39.468945;-0.340941;69.4;NaN;;17.702;;0 / 34;1612;2021-10-20 22:34:41:462
4.5161;-6.036;-3.585;-6.9623;-5.3678;-4.3431;-13.7841;8.0273;1.5528;3.9674;4.1925;-3.8024;0.0;18.41;-31.39;-10.56;146.34;24.27;131.0;5.0;63.532;39.468945;-0.340941;69.4;NaN;;17.702;;0 / 34;1632;2021-10-20 22:34:41:482
3.126;-5.7679;-2.568;-8.2169;-4.0701;-3.4764;-12.8826;6.9819;-0.7088;4.1302;5.3054;-3.6703;0.0;17.81;-32.29;-10.31;150.81;33.19;121.96;5.0;63.532;39.468945;-0.340941;69.4;NaN;;17.702;;0 / 34;1652;2021-10-20 22:34:41:502
0.248;-5.187;-1.728;-9.2512;0.7566;-3.1603;-9.3547;5.4011;-3.0635;4.1627;5.7874;-3.1648;0.0;17.4;-32.7;-9.96;150.81;33.19;121.96;5.0;63.532;39.468945;-0.340941;69.4;NaN;;17.702;;0 / 34;1672;2021-10-20 22:34:41:522
-3.6161;-3.64;-1.601;-5.7604;7.422;-2.8204;-9.3547;5.4011;-3.0635;3.9553;5.5319;-2.6284;0.0;17.21;-33.24;-9.71;154.88;-4.43;108.86;5.0;63.532;39.468945;-0.340941;69.4;NaN;;17.702;;0 / 34;1692;2021-10-20 22:34:41:542
-13.1089;3.068;-2.5609;2.2601;9.4523;-1.336;0.8111;-1.8506;-3.1982;3.4976;4.6105;-2.0514;0.0;17.21;-33.66;-9.66;154.88;-4.43;108.86;5.0;63.532;39.468945;-0.340941;69.4;NaN;;17.702;;0 / 34;1712;2021-10-20 22:34:41:562
-28.1179;5.2511;2.489;1.7478;9.6103;0.9098;10.5371;-6.0708;-5.8513;2.7999;1.9913;-1.272;0.0;17.21;-33.6;-9.66;179.91;-74.48;-120.59;5.0;63.532;39.468945;-0.340941;69.4;NaN;;17.702;;0 / 34;1732;2021-10-20 22:34:41:582
-36.546;7.125;3.2861;1.834;9.5912;0.9098;26.213;-8.3065;-9.5279;2.2058;-1.5559;0.8143;0.0;17.59;-33.36;-9.96;179.91;-74.48;-120.59;5.0;63.532;39.468945;-0.340941;69.4;NaN;;17.702;;0 / 34;1752;2021-10-20 22:34:41:602
-32.9719;7.4081;0.153;2.0207;9.5912;0.2586;29.5849;-10.1438;-7.6192;1.9207;-2.6579;1.9192;0.0;18.3;-33.0;-10.26;222.8;-77.95;-63.61;5.0;63.532;39.468945;-0.340941;69.4;NaN;;17.702;;0 / 34;1772;2021-10-20 22:34:41:622
-23.756;6.905;0.354;2.8252;9.3901;0.182;23.3701;-9.3125;-5.3534;1.6954;-2.8031;2.2322;0.0;19.39;-32.46;-10.61;222.8;-77.95;-63.61;5.0;63.532;39.468945;-0.340941;69.4;NaN;;17.702;;0 / 34;1792;2021-10-20 22:34:41:642
-15.671;6.3;1.1411;4.4149;8.7053;0.9625;11.1899;-8.2346;-5.4216;1.4809;-2.7327;2.318;0.0;20.34;-31.86;-10.91;203.9;-73.22;-86.31;5.0;63.532;39.468945;-0.340941;69.4;NaN;;17.702;;0 / 34;1812;2021-10-20 22:34:41:662
-7.322;6.1661;1.4141;5.4923;8.0302;1.2402;1.8108;-7.6189;-5.6451;1.2585;-2.6036;2.3506;0.0;21.41;-31.26;-11.59;203.9;-73.22;-86.31;5.0;63.532;39.468945;-0.340941;69.4;NaN;;17.702;;0 / 34;1832;2021-10-20 22:34:41:682
-5.507;6.1511;1.2821;7.1778;6.5266;1.4365;-3.3362;-7.2465;-5.0616;1.2585;-2.6036;2.3506;0.0;22.5;-30.66;-12.49;206.25;-54.96;-77.28;5.0;63.532;39.468945;-0.340941;69.4;NaN;;17.702;;0 / 34;1853;2021-10-20 22:34:41:703
-5.1461;5.6771;0.981;7.331;6.4691;0.8045;-3.983;-6.4513;-4.4111;1.2585;-2.6036;2.3506;0.0;23.21;-29.89;-13.61;206.25;-54.96;-77.28;5.0;53.426;39.468945;-0.340941;69.4;NaN;;17.702;;0 / 34;1872;2021-10-20 22:34:41:722
-4.2529;5.232;0.1721;7.7572;5.9999;0.0;-5.3576;-5.5614;-2.936;1.2585;-2.6036;2.3506;0.0;24.0;-29.29;-14.59;205.68;-41.26;-83.74;5.0;53.426;39.468945;-0.340941;69.4;NaN;;17.702;;0 / 34;1892;2021-10-20 22:34:41:742
0.885;4.535;-1.335;9.0884;-2.4373;-2.7629;-8.3815;-4.5683;-1.5446;1.2585;-2.6036;2.3506;0.0;24.49;-28.99;-15.66;205.68;-41.26;-83.74;5.0;53.426;39.468945;-0.340941;69.4;NaN;;17.702;;0 / 34;1913;2021-10-20 22:34:41:763
2.568;4.3421;-1.3811;7.92;-5.1954;-2.5474;-11.3053;-3.8778;-0.9482;-0.7204;-1.3276;2.6649;19.0;24.79;-28.74;-16.56;203.27;14.39;-106.91;5.0;53.426;39.468945;-0.340941;69.4;NaN;;17.702;;0 / 34;1932;2021-10-20 22:34:41:782
3.8441;4.208;-1.6301;6.8522;-6.4739;-2.7007;-13.1265;-2.8563;-0.747;-0.7204;-1.3276;2.6649;19.0;24.84;-28.56;-17.34;203.27;14.39;-106.91;5.0;53.426;39.468945;-0.340941;69.4;NaN;;17.702;;0 / 34;1952;2021-10-20 22:34:41:802
4.109;4.284;-1.3901;6.8283;-6.6511;-2.3032;-13.2406;-1.9845;-1.406;-0.7204;-1.3276;2.6649;19.0;25.09;-28.44;-18.11;260.14;41.32;-111.51;5.0;53.426;39.468945;-0.340941;69.4;NaN;;17.702;;0 / 34;1972;2021-10-20 22:34:41:822
3.2861;4.097;-0.976;7.7237;-5.8371;-1.5754;-13.2406;-1.9845;-1.406;-6.0108;5.9161;3.0962;19.0;25.09;-28.39;-18.49;260.14;41.32;-111.51;5.0;53.426;39.468945;-0.340941;69.4;NaN;;17.702;;0 / 34;1992;2021-10-20 22:34:41:842
-4.3339;5.522;3.066;8.0206;3.7924;4.1803;-6.3843;0.4707;-6.9799;-4.3003;5.7333;3.1168;19.0;25.69;-29.16;-18.36;220.77;-22.75;-62.47;5.0;53.426;39.468945;-0.340941;69.4;NaN;;17.702;;0 / 34;2039;2021-10-20 22:34:41:889
-4.3339;5.522;3.066;6.9623;5.7078;3.893;-2.1086;0.48;-7.9289;-4.3003;5.7333;3.1168;19.0;25.69;-29.16;-18.36;220.77;-22.75;-62.47;5.0;53.426;39.468945;-0.340941;69.4;NaN;;17.702;;0 / 34;2040;2021-10-20 22:34:41:890
-5.749;6.273;3.5471;6.9623;5.7078;3.893;-2.1086;0.48;-7.9289;-4.3003;5.7333;3.1167;19.0;25.69;-29.16;-18.36;220.77;-22.75;-62.47;5.0;53.426;39.468945;-0.340941;69.4;NaN;;17.702;;0 / 34;2052;2021-10-20 22:34:41:902
-7.5851;7.779;4.595;6.3925;6.3782;3.8259;1.3425;-0.3283;-8.9203;-4.9868;4.9592;2.4097;19.0;25.91;-29.7;-18.36;220.77;-22.75;-62.47;5.0;53.426;39.468945;-0.340941;69.4;NaN;;17.702;;0 / 34;2072;2021-10-20 22:34:41:922
-14.196;9.921;6.8171;5.4731;7.2592;3.6775;6.1547;-2.0042;-10.5685;-4.9868;4.9592;2.4097;19.0;26.1;-30.3;-18.19;222.63;-40.57;-59.1;5.0;53.426;39.468945;-0.340941;69.4;NaN;;17.702;;0 / 34;2092;2021-10-20 22:34:41:942
-19.862;10.2851;7.362;4.5107;8.0972;3.2082;6.1547;-2.0042;-10.5685;-5.797;3.8112;1.1455;19.0;26.51;-31.09;-17.94;222.63;-40.57;-59.1;5.0;53.426;39.468945;-0.340941;69.4;NaN;;17.702;;0 / 34;2112;2021-10-20 22:34:41:962
-34.087;9.359;5.522;2.3367;9.4427;1.2593;26.7365;-2.4623;-9.8806;1.5887;-6.5003;-1.2738;19.0;26.59;-31.8;-17.59;232.16;-67.83;-55.75;5.0;53.426;39.468945;-0.340941;69.4;NaN;;17.702;;0 / 34;2132;2021-10-20 22:34:41:982
-33.5749;7.602;3.983;2.0638;9.5289;1.0534;27.9925;-0.8684;-7.2597;2.4775;-5.8811;-1.6785;19.0;26.81;-32.64;-17.29;232.16;-67.83;-55.75;5.0;53.426;39.468945;-0.340941;69.4;NaN;;17.702;;0 / 34;2152;2021-10-20 22:34:42:002
-22.706;3.837;3.6191;1.7717;9.5577;1.2929;20.8532;1.2293;-6.1111;2.6118;-5.119;-1.8006;19.0;26.7;-33.54;-17.29;228.93;-76.33;-62.96;5.0;53.426;39.468945;-0.340941;69.4;NaN;;17.702;;0 / 34;2173;2021-10-20 22:34:42:023
-17.777;1.89;3.336;1.3599;9.5577;1.719;13.0348;3.4268;-6.1307;2.6118;-5.119;-1.8006;19.0;26.4;-34.44;-17.16;228.93;-76.33;-62.96;5.0;53.279;39.468945;-0.340941;69.4;NaN;;17.702;;0 / 34;2192;2021-10-20 22:34:42:042
-13.035;0.4541;2.295;-0.498;9.7013;1.3264;6.247;5.2705;-4.7562;2.6311;-4.0521;-1.8151;19.0;25.99;-35.16;-17.29;251.17;-77.08;-38.35;5.0;53.279;39.468945;-0.340941;69.4;NaN;;17.702;;0 / 34;2212;2021-10-20 22:34:42:062
-8.277;-1.541;0.4901;-2.0446;9.5864;0.3591;1.3809;6.4755;-2.9636;2.5758;-3.5603;-1.8226;19.0;25.14;-35.59;-17.04;251.17;-77.08;-38.35;5.0;53.279;39.468945;-0.340941;69.4;NaN;;17.702;;0 / 34;2233;2021-10-20 22:34:42:083
-6.3911;-2.9201;-1.3451;-3.7397;8.9447;-1.47;-1.2194;7.5112;-1.2471;2.4811;-3.0031;-1.8789;19.0;23.94;-35.89;-16.99;34.45;-77.78;80.04;5.0;53.279;39.468945;-0.340941;69.4;NaN;;17.702;;0 / 34;2252;2021-10-20 22:34:42:102
-5.6479;-3.915;-3.078;-5.3103;7.039;-4.2952;-2.6507;8.4534;1.2352;2.3507;-2.3913;-1.9675;35.0;22.5;-35.89;-16.86;34.45;-77.78;80.04;5.0;53.279;39.468945;-0.340941;69.4;NaN;;17.702;;0 / 34;2272;2021-10-20 22:34:42:122
-4.215;-5.1791;-4.9691;-6.3351;2.6097;-7.015;-4.763;9.6226;3.7669;2.2301;-1.7142;-2.1535;35.0;21.3;-35.89;-16.69;138.62;-27.66;134.55;5.0;53.279;39.468945;-0.340941;69.4;NaN;;17.702;;0 / 34;2292;2021-10-20 22:34:42:142
-0.186;-6.3139;-7.0009;-6.5266;0.5411;-7.2975;-7.1042;9.8463;5.2477;2.1432;-0.877;-2.5363;35.0;20.04;-35.7;-16.99;138.62;-27.66;134.55;5.0;53.279;39.468945;-0.340941;69.4;NaN;;17.702;;0 / 34;2312;2021-10-20 22:34:42:162
1.517;-6.568;-7.089;-6.5793;-1.2929;-7.1587;-9.8484;9.5487;5.3566;2.1231;0.3259;-3.2292;35.0;18.54;-35.1;-16.99;143.89;-3.16;138.19;5.0;53.279;39.468945;-0.340941;69.4;NaN;;17.702;;0 / 34;2332;2021-10-20 22:34:42:182
2.9171;-6.46;-6.759;-6.5027;-3.0167;-6.6942;-11.7594;8.8249;4.8203;2.2172;1.9719;-4.0542;35.0;17.34;-34.8;-17.21;143.89;-3.16;138.19;5.0;53.279;39.468945;-0.340941;69.4;NaN;;17.702;;0 / 34;2352;2021-10-20 22:34:42:202
3.0131;-6.3311;-5.9719;-6.8331;-3.2082;-6.2584;-12.3157;7.6724;3.2003;2.4211;3.4196;-4.4441;35.0;16.2;-34.56;-17.16;144.74;17.91;135.83;5.0;53.279;39.468945;-0.340941;69.4;NaN;;17.702;;0 / 34;2372;2021-10-20 22:34:42:222
-0.059;-4.871;-2.187;-7.6231;-2.9449;-5.4253;-12.3157;7.6724;3.2003;2.6027;4.229;-4.3057;35.0;15.49;-34.56;-17.34;144.74;17.91;135.83;5.0;53.279;39.468945;-0.340941;69.4;NaN;;17.702;;0 / 34;2392;2021-10-20 22:34:42:242
-2.544;-3.3979;-1.299;-6.8091;6.5745;-2.5666;-8.2582;4.0953;-2.5685;2.6478;4.4466;-3.9161;35.0;15.0;-34.5;-17.34;147.14;-4.79;112.9;5.0;53.279;39.468945;-0.340941;69.4;NaN;;17.702;;0 / 34;2413;2021-10-20 22:34:42:263
-5.136;-1.405;-1.1681;-1.6233;9.4092;-2.2458;-4.2152;1.1367;-4.1805;2.5197;4.1933;-3.4936;35.0;14.89;-34.44;-17.34;147.14;-4.79;112.9;5.0;53.279;39.468945;-0.340941;69.4;NaN;;17.702;;0 / 34;2432;2021-10-20 22:34:42:282
-12.815;4.739;-0.8659;3.7685;8.9016;-1.6616;-0.4572;-4.698;-3.8578;2.5197;4.1933;-3.4936;35.0;14.89;-34.09;-17.46;123.06;-73.59;144.14;5.0;53.279;39.468945;-0.340941;69.4;NaN;;17.702;;0 / 34;2452;2021-10-20 22:34:42:302
-23.7251;6.3401;2.63;2.8156;9.3853;0.3831;10.811;-7.9035;-6.5946;2.5197;4.1933;-3.4936;35.0;15.0;-33.66;-17.29;123.06;-73.59;144.14;5.0;53.279;39.468945;-0.340941;69.4;NaN;;17.702;;0 / 34;2472;2021-10-20 22:34:42:322
-31.8349;8.4281;4.404;2.6145;9.4379;0.5315;22.9486;-10.3868;-10.1144;2.5197;4.1933;-3.4936;35.0;16.01;-33.3;-17.04;237.34;-73.35;-59.94;5.0;53.279;39.468945;-0.340941;69.4;NaN;;17.702;;0 / 34;2493;2021-10-20 22:34:42:343
-35.8249;10.247;-1.6579;2.7485;9.3948;-0.6273;28.0856;-12.2045;-5.7723;2.5197;4.1933;-3.4936;35.0;17.34;-32.46;-16.56;237.34;-73.35;-59.94;5.0;45.719;39.468945;-0.340941;69.4;NaN;;17.702;;0 / 34;2513;2021-10-20 22:34:42:363
-30.183;10.551;-4.722;3.3136;9.1028;-1.5467;23.0431;-12.3092;-0.3795;2.5197;4.1933;-3.4936;35.0;19.01;-31.69;-16.44;200.54;-73.3;-102.86;5.0;45.719;39.468945;-0.340941;69.4;NaN;;17.702;;0 / 34;2533;2021-10-20 22:34:42:383
-14.491;8.657;-1.0549;4.0414;8.825;-1.403;23.0431;-12.3092;-1.1088;-0.3519;-2.3369;2.1865;35.0;20.51;-30.66;-16.26;200.54;-73.3;-102.86;5.0;45.719;39.468945;-0.340941;69.4;NaN;;17.702;;0 / 34;2552;2021-10-20 22:34:42:402
-9.2989;8.411;1.938;6.7038;6.9001;1.8914;2.6448;-9.3733;-4.5108;-0.5158;-2.1795;2.2252;35.0;22.14;-29.4;-16.31;202.63;-57.54;-93.65;5.0;45.719;39.468945;-0.340941;69.4;NaN;;17.702;;0 / 34;2572;2021-10-20 22:34:42:422
-7.3789;8.4041;3.375;7.106;6.0382;3.0358;-1.9976;-8.7988;-7.2116;-0.5158;-2.1795;2.2252;35.0;23.4;-28.44;-16.86;202.63;-57.54;-93.65;5.0;45.719;39.468945;-0.340941;69.4;NaN;;17.702;;0 / 34;2592;2021-10-20 22:34:42:442
-5.34;7.235;1.8431;7.8003;5.7078;1.6568;-3.3301;-7.7845;-6.5232;-0.6861;-1.994;2.1594;91.0;24.41;-27.49;-17.51;220.85;-34.87;-65.65;5.0;45.719;39.468945;-0.340941;69.4;NaN;;17.702;;0 / 34;2613;2021-10-20 22:34:42:463
-4.191;6.405;0.1241;8.3127;5.2002;-0.182;-4.4647;-6.4268;-3.8671;-0.901;-1.7445;2.1002;91.0;25.31;-26.76;-17.94;220.85;-34.87;-65.65;5.0;45.719;39.468945;-0.340941;69.4;NaN;;17.702;;0 / 34;2632;2021-10-20 22:34:42:482
-2.2811;5.5721;-0.957;9.1219;3.1268;-1.7909;-6.7371;-4.7748;-1.867;-1.466;-1.1945;2.1295;91.0;25.74;-25.99;-18.49;205.81;-32.02;-91.25;5.0;45.719;39.468945;-0.340941;69.4;NaN;;17.702;;0 / 34;2652;2021-10-20 22:34:42:502
0.033;4.7441;-1.405;9.3374;-0.9385;-2.8443;-6.7371;-4.7748;-1.867;-2.4468;-0.4691;2.3301;91.0;26.04;-25.39;-18.96;205.81;-32.02;-91.25;5.0;45.719;39.468945;-0.340941;69.4;NaN;;17.702;;0 / 34;2672;2021-10-20 22:34:42:522
2.709;3.327;-1.136;7.4077;-5.8466;-2.6671;-12.1651;-1.5435;-1.2026;-2.4468;-0.4691;2.3301;91.0;26.1;-24.96;-19.09;205.75;5.49;-106.94;5.0;45.719;39.468945;-0.340941;69.4;NaN;;17.702;;0 / 34;2692;2021-10-20 22:34:42:542
3.585;3.0011;-0.7151;6.3111;-7.3789;-1.3838;-12.7659;-0.0479;-1.8687;-6.3464;3.1978;2.9301;91.0;26.29;-24.49;-19.31;205.75;5.49;-106.94;5.0;45.719;39.468945;-0.340941;69.4;NaN;;17.702;;0 / 34;2713;2021-10-20 22:34:42:563
2.829;2.798;-0.32;6.8857;-6.9528;-0.6512;-11.319;1.1765;-2.8162;-6.3255;4.8406;3.0914;91.0;26.29;-24.36;-19.56;295.02;48.79;-102.37;5.0;45.719;39.468945;-0.340941;69.4;NaN;;17.702;;0 / 34;2732;2021-10-20 22:34:42:582
0.77;2.7671;0.1931;9.572;-1.9872;0.7422;-9.6628;2.0811;-3.64;-5.0783;5.362;3.2249;91.0;26.59;-24.3;-19.39;295.02;48.79;-102.37;5.0;45.719;39.468945;-0.340941;69.4;NaN;;17.702;;0 / 34;2752;2021-10-20 22:34:42:602
-0.361;3.3821;0.842;9.2512;1.7909;2.7246;-7.1644;2.6186;-4.387;-3.8001;5.4769;3.3594;91.0;26.89;-24.6;-19.14;227.42;11.69;-85.57;5.0;45.719;39.468945;-0.340941;69.4;NaN;;17.702;;0 / 34;2772;2021-10-20 22:34:42:622
-2.987;4.215;1.74;7.3215;5.7269;3.1268;-3.6002;2.2864;-5.9166;-3.3181;5.2535;3.3675;91.0;27.3;-24.79;-18.84;227.42;11.69;-85.57;5.0;45.719;39.468945;-0.340941;69.4;NaN;;17.702;;0 / 34;2792;2021-10-20 22:34:42:642
-7.5469;7.484;3.734;6.3829;6.6176;3.4046;0.5422;1.1885;-6.8463;-3.5115;4.5866;2.8552;91.0;27.6;-25.26;-18.41;221.72;-43.04;-66.71;5.0;45.719;39.468945;-0.340941;69.4;NaN;;17.702;;0 / 34;2812;2021-10-20 22:34:42:662
-11.645;8.5571;6.606;5.0135;7.3837;4.0701;4.3975;-0.6266;-9.1539;-4.8368;3.4735;1.4762;91.0;27.84;-25.8;-18.19;221.72;-43.04;-66.71;5.0;45.719;39.468945;-0.340941;69.4;NaN;;17.702;;0 / 34;2832;2021-10-20 22:34:42:682
-19.2011;8.954;8.0351;3.7062;8.4659;3.2848;13.1026;-0.9871;-11.3258;-5.1507;1.2317;-0.3101;91.0;28.31;-26.46;-18.06;231.74;-48.83;-50.93;5.0;48.185;39.468945;-0.340941;69.4;NaN;;17.702;;0 / 34;2852;2021-10-20 22:34:42:702
-27.768;8.7821;5.127;2.6049;9.4379;0.5986;21.6912;-1.1292;-8.6297;0.0686;-4.8022;-1.6295;91.0;28.8;-27.19;-17.46;231.74;-48.83;-50.93;5.0;48.185;39.468945;-0.340941;69.4;NaN;;17.702;;0 / 34;2872;2021-10-20 22:34:42:722
-28.776;6.965;-0.7249;2.3511;9.5241;-0.1724;23.9479;-0.5464;-3.3848;1.7553;-4.9109;-1.9671;91.0;29.21;-27.96;-16.56;216.51;-74.19;-77.06;5.0;48.185;39.468945;-0.340941;69.4;NaN;;17.702;;0 / 34;2892;2021-10-20 22:34:42:742
-23.936;5.222;-0.84;2.1213;9.5672;-0.3735;20.9121;0.8301;-1.3108;2.0906;-4.2504;-2.0362;91.0;29.7;-28.86;-15.71;216.51;-74.19;-77.06;5.0;48.185;39.468945;-0.340941;69.4;NaN;;17.702;;0 / 34;2912;2021-10-20 22:34:42:762
-20.29;3.65;0.186;1.9489;9.6103;-0.1437;20.9121;0.8301;-1.3108;2.1853;-3.7437;-2.003;113.0;30.11;-29.76;-14.76;199.32;-78.51;-94.22;5.0;48.185;39.468945;-0.340941;69.4;NaN;;17.702;;0 / 34;2933;2021-10-20 22:34:42:783
-13.9301;0.4451;0.122;0.4693;9.7971;0.182;10.3925;4.0054;-2.5982;2.296;-3.3745;-1.9543;113.0;30.19;-30.79;-14.34;199.32;-78.51;-94.22;5.0;48.185;39.468945;-0.340941;69.4;NaN;;17.702;;0 / 34;2952;2021-10-20 22:34:42:802
-11.81;-0.327;-0.574;-0.0958;9.8019;-0.316;5.7798;5.6715;-1.7924;2.4593;-3.0529;-1.9136;113.0;30.19;-31.74;-13.86;224.26;-87.06;-68.81;5.0;48.185;39.468945;-0.340941;69.4;NaN;;17.702;;0 / 34;2972;2021-10-20 22:34:42:822
-6.532;-2.6951;-2.0479;-3.3279;8.8777;-2.4995;1.5188;6.9194;-0.4572;2.6092;-2.6382;-1.9038;113.0;29.81;-32.76;-13.39;224.26;-87.06;-68.81;5.0;48.185;39.468945;-0.340941;69.4;NaN;;17.702;;0 / 34;2992;2021-10-20 22:34:42:842
-4.729;-3.9611;-2.711;-5.2816;7.3837;-3.711;-1.9125;7.9853;0.5221;2.6421;-2.0883;-1.8872;113.0;29.29;-33.54;-12.79;91.04;-64.88;126.91;5.0;48.185;39.468945;-0.340941;69.4;NaN;;17.702;;0 / 34;3012;2021-10-20 22:34:42:862
-2.3051;-4.904;-3.664;-7.2401;4.0079;-5.2625;-4.9602;9.2927;1.4253;2.6599;-1.529;-1.9371;113.0;28.14;-34.56;-12.54;91.04;-64.88;126.91;5.0;48.185;39.468945;-0.340941;69.4;NaN;;17.702;;0 / 34;3032;2021-10-20 22:34:42:882
-0.998;-5.407;-4.284;-7.5609;1.8531;-5.9616;-4.9602;9.2927;1.4253;2.6599;-1.529;-1.9371;113.0;27.0;-35.4;-12.49;140.55;-10.89;128.25;5.0;48.185;39.468945;-0.340941;69.4;NaN;;17.702;;0 / 34;3053;2021-10-20 22:34:42:903
1.6031;-5.9719;-5.457;-7.0198;-2.0734;-6.5266;-10.2487;9.7228;3.4386;2.6599;-1.529;-1.9371;113.0;27.0;-35.4;-12.49;140.55;-10.89;128.25;5.0;48.185;39.468945;-0.340941;69.4;NaN;;17.702;;0 / 34;3072;2021-10-20 22:34:42:922
2.843;-5.9621;-6.407;-6.3063;-3.0885;-6.8426;-11.6245;8.9484;3.7947;2.6599;-1.529;-1.9371;113.0;24.24;-36.84;-11.89;140.55;-10.89;128.25;5.0;48.185;39.468945;-0.340941;69.4;NaN;;17.702;;0 / 34;3092;2021-10-20 22:34:42:942
2.534;-6.0;-6.486;-6.4739;-2.5666;-6.9049;-11.8744;8.1024;3.5672;2.6599;-1.529;-1.9371;113.0;23.1;-37.44;-11.59;146.08;18.36;137.34;5.0;48.185;39.468945;-0.340941;69.4;NaN;;17.702;;0 / 34;3112;2021-10-20 22:34:42:962
1.725;-5.816;-5.2061;-7.2927;-1.9249;-6.2728;-10.8212;6.9867;1.6784;2.6599;-1.529;-1.9371;113.0;22.01;-37.86;-11.29;146.08;18.36;137.34;5.0;48.185;39.468945;-0.340941;69.4;NaN;;17.702;;0 / 34;3132;2021-10-20 22:34:42:982
0.33;-5.3831;-4.1291;-7.7716;0.0;-5.9807;-9.2446;5.6065;-0.4941;3.2634;4.6936;-4.023;113.0;20.94;-38.16;-11.04;150.52;11.32;130.7;5.0;49.947;39.468945;-0.340941;69.4;NaN;;17.702;;0 / 34;3152;2021-10-20 22:34:43:002
-4.698;-2.319;-1.749;-3.2801;8.8585;-2.6432;-5.0081;3.3807;-2.5116;3.1409;4.616;-3.5082;113.0;19.99;-38.64;-10.91;150.52;11.32;130.7;5.0;49.947;39.468945;-0.340941;69.4;NaN;;17.702;;0 / 34;3172;2021-10-20 22:34:43:022
-7.25;0.404;0.969;0.838;9.5768;1.9489;-2.0939;-0.7829;-5.2061;2.8802;4.1555;-2.91;113.0;19.91;-38.7;-10.74;112.9;-64.57;128.86;5.0;49.947;39.468945;-0.340941;69.4;NaN;;17.702;;0 / 34;3192;2021-10-20 22:34:43:042
-15.4549;1.814;5.163;1.1061;9.2799;2.9736;6.5442;-3.7985;-10.7587;2.4017;1.9621;-2.3772;113.0;19.74;-38.94;-10.74;112.9;-64.57;128.86;5.0;49.947;39.468945;-0.340941;69.4;NaN;;17.702;;0 / 34;3212;2021-10-20 22:34:43:062
-34.317;6.12;5.304;1.4078;9.4667;2.1548;20.8266;-6.3202;-13.3951;2.4017;1.9621;-2.3772;113.0;20.34;-38.4;-10.99;247.97;-71.13;-20.4;5.0;49.947;39.468945;-0.340941;69.4;NaN;;17.702;;0 / 34;3232;2021-10-20 22:34:43:082
-36.325;8.2961;-0.497;1.8004;9.5624;1.221;20.8266;-6.3202;-13.3951;1.6037;-2.7457;1.294;113.0;21.11;-37.99;-11.21;247.97;-71.13;-20.4;5.0;49.947;39.468945;-0.340941;69.4;NaN;;17.702;;0 / 34;3252;2021-10-20 22:34:43:102
-33.166;9.024;-5.3539;2.4708;9.3948;-1.3408;27.1786;-9.0444;-9.9035;1.2067;-2.7409;1.9448;114.0;22.09;-37.44;-11.04;227.09;-77.18;-55.86;5.0;49.947;39.468945;-0.340941;69.4;NaN;;17.702;;0 / 34;3272;2021-10-20 22:34:43:122
-28.8289;9.0071;-6.245;2.9305;9.1363;-2.0351;25.9703;-11.2576;-0.0937;1.2067;-2.7409;1.9448;114.0;23.4;-36.6;-11.16;227.09;-77.18;-55.86;5.0;49.947;39.468945;-0.340941;69.4;NaN;;17.702;;0 / 34;3292;2021-10-20 22:34:43:142
-13.5;7.403;-0.052;4.956;8.4611;0.2394;7.7237;-9.1835;-2.5278;0.7424;-2.4068;2.2661;114.0;25.14;-35.89;-11.29;175.08;-67.73;-120.76;5.0;49.947;39.468945;-0.340941;69.4;NaN;;17.702;;0 / 34;3312;2021-10-20 22:34:43:162
-9.119;7.334;2.295;6.2153;7.288;2.1117;0.6383;-8.6442;-5.5947;0.7424;-2.4068;2.2661;114.0;26.29;-34.86;-11.81;175.08;-67.73;-120.76;5.0;49.947;39.468945;-0.340941;69.4;NaN;;17.702;;0 / 34;3332;2021-10-20 22:34:43:182
-6.6919;6.869;2.798;6.766;6.5745;2.6863;-2.37;-7.8862;-6.1043;0.561;-2.221;2.2806;114.0;27.11;-34.14;-12.41;207.28;-47.99;-71.23;5.0;49.947;39.468945;-0.340941;69.4;NaN;;17.702;;0 / 34;3352;2021-10-20 22:34:43:202
-6.06;6.206;1.455;6.9432;6.7995;1.312;-2.37;-7.8862;-6.1043;0.561;-2.221;2.2806;114.0;28.39;-32.76;-13.31;207.28;-47.99;-71.23;5.0;49.947;39.468945;-0.340941;69.4;NaN;;17.702;;0 / 34;3372;2021-10-20 22:34:43:222
-2.364;4.5311;-1.601;8.509;3.7445;-3.122;-5.3169;-5.1627;-1.5696;-0.301;-1.3677;2.2314;114.0;29.21;-32.1;-14.21;190.17;-38.76;-101.42;5.0;49.947;39.468945;-0.340941;69.4;NaN;;17.702;;0 / 34;3392;2021-10-20 22:34:43:242
-0.1;4.0691;-1.517;9.1842;-0.5363;-3.395;-8.2757;-3.8787;-0.7883;-1.13;-0.7292;2.3103;114.0;29.81;-31.5;-14.94;190.17;-38.76;-101.42;5.0;49.947;39.468945;-0.340941;69.4;NaN;;17.702;;0 / 34;3412;2021-10-20 22:34:43:262
2.412;3.554;-1.046;8.193;-4.7597;-2.5331;-11.0054;-2.7273;-1.1414;-2.1113;-0.2854;2.593;114.0;29.7;-30.9;-15.79;188.99;3.14;-110.29;5.0;49.947;39.468945;-0.340941;69.4;NaN;;17.702;;0 / 34;3432;2021-10-20 22:34:43:282
3.8081;3.252;-0.686;6.201;-7.4986;-1.221;-12.9331;-1.5556;-1.6776;-4.5361;1.045;2.9004;114.0;29.59;-30.54;-16.69;188.99;3.14;-110.29;5.0;49.947;39.468945;-0.340941;69.4;NaN;;17.702;;0 / 34;3452;2021-10-20 22:34:43:302
3.954;2.889;-0.093;5.5833;-8.0541;-0.3974;-12.9331;-1.5556;-1.6776;-7.5585;4.5851;2.5296;114.0;29.04;-30.19;-17.59;292.85;49.87;-101.14;5.0;49.947;39.468945;-0.340941;69.4;NaN;;17.702;;0 / 34;3472;2021-10-20 22:34:43:322
2.685;2.678;-0.141;7.58;-6.177;-0.7374;-11.7014;0.7404;-3.5247;-6.6839;6.1087;2.6093;114.0;28.99;-29.89;-17.89;292.85;49.87;-101.14;5.0;47.135;39.468945;-0.340941;69.4;NaN;;17.702;;0 / 34;3492;2021-10-20 22:34:43:342
-0.011;2.6711;-0.2839;9.098;-3.3232;-1.5419;-9.5164;1.7404;-3.8501;-4.9254;6.5388;2.8659;114.0;28.8;-29.59;-18.06;255.1;39.04;-95.56;5.0;47.135;39.468945;-0.340941;69.4;NaN;;17.702;;0 / 34;3512;2021-10-20 22:34:43:362
-1.239;3.0731;0.2921;9.3805;2.8347;0.3496;-6.4803;2.4458;-4.7105;-3.6459;6.5506;3.1302;114.0;28.39;-29.76;-17.59;255.1;39.04;-95.56;5.0;47.135;39.468945;-0.340941;69.4;NaN;;17.702;;0 / 34;3532;2021-10-20 22:34:43:382
-3.681;4.2701;1.9121;6.7373;6.3303;3.2753;-2.6622;1.8691;-6.8756;-3.5744;6.1546;3.1339;114.0;28.01;-29.94;-17.16;206.21;-16.8;-87.87;5.0;47.135;39.468945;-0.340941;69.4;NaN;;17.702;;0 / 34;3552;2021-10-20 22:34:43:402
-7.281;5.9141;3.9011;4.9177;7.695;3.5769;2.9653;0.3896;-9.4078;-4.8163;5.2055;2.1828;114.0;27.6;-30.19;-16.61;206.21;-16.8;-87.87;5.0;47.135;39.468945;-0.340941;69.4;NaN;;17.702;;0 / 34;3572;2021-10-20 22:34:43:422
-19.17;8.763;6.5411;3.7397;8.6383;2.7533;9.7026;-1.0777;-10.8547;-6.2072;3.6563;0.2976;114.0;27.84;-30.24;-15.66;225.42;-51.68;-53.97;5.0;47.135;39.468945;-0.340941;69.4;NaN;;17.702;;0 / 34;3592;2021-10-20 22:34:43:442
-25.59;8.8271;5.517;3.0023;9.1698;1.7717;17.2694;-1.4369;-10.2197;-1.7968;-4.1397;-0.8306;40.0;27.79;-30.54;-14.76;225.42;-51.68;-53.97;5.0;47.135;39.468945;-0.340941;69.4;NaN;;17.702;;0 / 34;3612;2021-10-20 22:34:43:462
-34.4201;7.214;0.153;1.968;9.6055;-0.067;25.498;-1.2517;-7.1736;2.2965;-6.1726;-1.3086;40.0;27.9;-31.09;-13.31;222.88;-69.18;-59.45;5.0;47.135;39.468945;-0.340941;69.4;NaN;;17.702;;0 / 34;3632;2021-10-20 22:34:43:482
-31.7149;6.072;-1.5889;1.8579;9.6199;-0.431;27.3145;0.0367;-2.4839;2.2965;-6.1726;-1.3086;40.0;27.84;-31.69;-12.24;222.88;-69.18;-59.45;5.0;47.135;39.468945;-0.340941;69.4;NaN;;17.702;;0 / 34;3652;2021-10-20 22:34:43:502
-26.559;4.277;-1.467;1.6472;9.6534;-0.5507;20.5613;1.6144;-1.6275;2.2965;-6.1726;-1.3086;40.0;27.84;-32.34;-11.04;187.06;-78.79;-103.06;5.0;47.135;39.468945;-0.340941;69.4;NaN;;17.702;;0 / 34;3672;2021-10-20 22:34:43:522
-20.9269;1.922;-0.368;0.1532;9.8067;0.1293;12.7545;4.3339;-2.7929;2.5256;-3.8772;-1.6415;40.0;27.84;-32.89;-10.26;187.06;-78.79;-103.06;5.0;47.135;39.468945;-0.340941;69.4;NaN;;17.702;;0 / 34;3692;2021-10-20 22:34:43:542
-10.524;-1.361;0.335;-0.8523;9.7636;0.2969;5.5346;6.1801;-3.0596;2.5256;-3.8772;-1.6415;40.0;27.49;-33.49;-9.36;237.45;-88.83;-49.84;5.0;47.135;39.468945;-0.340941;69.4;NaN;;17.702;;0 / 34;3712;2021-10-20 22:34:43:562
-8.329;-1.924;0.3611;-2.0159;9.5864;0.4214;1.5521;6.7157;-2.9183;2.6733;-3.0777;-1.6021;40.0;26.89;-34.39;-8.89;237.45;-88.83;-49.84;5.0;47.135;39.468945;-0.340941;69.4;NaN;;17.702;;0 / 34;3732;2021-10-20 22:34:43:582
-6.438;-2.6561;0.215;-4.0366;8.9352;0.0575;-2.0468;7.5295;-2.4215;2.6733;-3.0777;-1.6021;40.0;25.69;-35.59;-8.81;10.34;-77.88;78.19;5.0;47.135;39.468945;-0.340941;69.4;NaN;;17.702;;0 / 34;3752;2021-10-20 22:34:43:602
-5.019;-3.829;-1.479;-6.6367;6.1962;-3.7062;-3.6871;8.2346;-0.6548;2.6733;-3.0777;-1.6021;40.0;24.54;-36.66;-8.76;10.34;-77.88;78.19;5.0;47.135;39.468945;-0.340941;69.4;NaN;;17.702;;0 / 34;3772;2021-10-20 22:34:43:622
-3.083;-5.696;-4.236;-7.1778;4.2329;-5.1763;-5.1765;9.0005;1.2119;2.6733;-3.0777;-1.6021;40.0;23.29;-37.8;-8.94;135.69;-39.18;119.18;5.0;47.135;39.468945;-0.340941;69.4;NaN;;17.702;;0 / 34;3792;2021-10-20 22:34:43:642
-1.591;-6.742;-5.6531;-7.3358;0.0958;-6.5074;-7.0445;9.9507;3.1969;2.6467;-0.8261;-2.3497;40.0;21.9;-38.94;-8.94;135.69;-39.18;119.18;5.0;49.186;39.468945;-0.340941;69.4;NaN;;17.702;;0 / 34;3812;2021-10-20 22:34:43:662
2.408;-7.791;-7.5131;-6.9719;-1.8387;-6.6463;-9.6756;10.1769;4.4036;2.6467;-0.8261;-2.3497;40.0;20.34;-40.14;-9.41;153.38;-0.56;131.58;5.0;49.186;39.468945;-0.340941;69.4;NaN;;17.702;;0 / 34;3832;2021-10-20 22:34:43:682
4.16;-7.719;-6.948;-6.7612;-2.9784;-6.45;-9.6756;10.1769;4.4036;2.7745;1.7127;-4.106;40.0;18.6;-41.29;-9.71;153.38;-0.56;131.58;5.0;49.186;39.468945;-0.340941;69.4;NaN;;17.702;;0 / 34;3852;2021-10-20 22:34:43:702
5.0171;-7.3241;-5.2939;-7.082;-5.2241;-4.3239;-14.0558;8.1176;2.039;2.7745;1.7127;-4.106;40.0;16.69;-42.24;-10.61;154.58;17.68;133.65;5.0;49.186;39.468945;-0.340941;69.4;NaN;;17.702;;0 / 34;3872;2021-10-20 22:34:43:722
3.863;-5.723;-1.299;-8.2265;-5.1427;-1.4317;-13.478;5.8421;-1.7666;3.2278;4.2356;-4.5213;40.0;14.94;-42.84;-11.34;154.58;17.68;133.65;5.0;49.186;39.468945;-0.340941;69.4;NaN;;17.702;;0 / 34;3892;2021-10-20 22:34:43:742
-0.38;-3.93;0.84;-9.7013;-0.5985;1.3264;-9.6729;3.3317;-5.1767;3.3359;4.6787;-4.0162;40.0;13.74;-43.26;-12.06;161.6;31.63;99.87;5.0;49.186;39.468945;-0.340941;69.4;NaN;;17.702;;0 / 34;3913;2021-10-20 22:34:43:763
-4.3061;-1.941;1.6151;-2.7485;8.9064;3.0406;-3.9894;0.0172;-7.1789;3.2418;4.4106;-3.5695;35.0;12.71;-43.5;-12.84;161.6;31.63;99.87;5.0;49.186;39.468945;-0.340941;69.4;NaN;;17.702;;0 / 34;3932;2021-10-20 22:34:43:782
-10.034;1.2941;2.0651;0.8619;9.5433;2.0782;-3.9894;0.0172;-7.1789;2.8581;3.1753;-3.3535;35.0;12.0;-43.26;-13.91;263.91;-76.73;-22.53;5.0;49.186;39.468945;-0.340941;69.4;NaN;;17.702;;0 / 34;3952;2021-10-20 22:34:43:802
-22.3901;4.95;3.8531;2.1117;9.4379;1.6376;10.0585;-7.4761;-8.8169;2.0416;0.4165;-2.492;35.0;11.94;-42.9;-15.06;263.91;-76.73;-22.53;5.0;49.186;39.468945;-0.340941;69.4;NaN;;17.702;;0 / 34;3972;2021-10-20 22:34:43:822
-28.022;7.0151;4.059;2.399;9.4188;1.3024;17.756;-9.5012;-9.7483;1.2892;-2.369;0.3901;35.0;12.49;-42.19;-15.84;240.9;-74.19;-52.21;5.0;49.186;39.468945;-0.340941;69.4;NaN;;17.702;;0 / 34;3992;2021-10-20 22:34:43:842
-29.233;8.21;3.8291;2.6432;9.3661;1.2258;21.1366;-11.2375;-8.7638;0.9578;-3.3023;2.1758;35.0;13.74;-41.1;-16.69;240.9;-74.19;-52.21;5.0;49.186;39.468945;-0.340941;69.4;NaN;;17.702;;0 / 34;4012;2021-10-20 22:34:43:862
-25.994;8.7;0.878;2.7342;9.3709;0.9194;21.1387;-11.5775;-7.6877;0.6744;-3.3125;2.7075;35.0;15.49;-39.84;-17.34;230.3;-72.72;-65.12;5.0;49.186;39.468945;-0.340941;69.4;NaN;;17.702;;0 / 34;4033;2021-10-20 22:34:43:883
-21.2861;8.5331;-1.2319;3.1795;9.2751;0.158;21.1387;-11.5775;-7.6877;0.315;-2.9683;2.7984;35.0;17.64;-38.46;-17.81;230.3;-72.72;-65.12;5.0;49.186;39.468945;-0.340941;69.4;NaN;;17.702;;0 / 34;4052;2021-10-20 22:34:43:902
-16.3579;8.1041;-1.9481;4.7645;8.5042;-1.0822;9.8954;-10.6334;-1.6327;-0.0422;-2.5435;2.7563;35.0;19.5;-36.9;-18.66;201.69;-65.59;-101.66;5.0;49.186;39.468945;-0.340941;69.4;NaN;;17.702;;0 / 34;4072;2021-10-20 22:34:43:922
-12.032;7.592;-1.452;5.6072;8.0158;-0.6943;3.4809;-9.4506;-1.4049;-0.3244;-2.1597;2.6594;35.0;21.54;-35.29;-19.44;201.69;-65.59;-101.66;5.0;49.186;39.468945;-0.340941;69.4;NaN;;17.702;;0 / 34;4092;2021-10-20 22:34:43:942
-7.671;6.156;0.722;6.1531;7.6184;0.5459;-0.5686;-8.0645;-2.5908;-0.5945;-1.8591;2.5257;35.0;23.4;-33.66;-19.91;202.92;-54.82;-97.06;5.0;49.186;39.468945;-0.340941;69.4;NaN;;17.702;;0 / 34;4113;2021-10-20 22:34:43:963
-7.53;5.73;1.1651;5.8514;7.7716;1.2354;-1.9638;-6.5501;-3.4546;-0.8935;-1.588;2.3827;35.0;24.9;-32.16;-20.59;202.92;-54.82;-97.06;5.0;47.637;39.468945;-0.340941;69.4;NaN;;17.702;;0 / 34;4132;2021-10-20 22:34:43:982
-6.5171;5.7251;0.552;6.2968;7.4651;0.8859;-1.9638;-6.5501;-3.4546;-1.2757;-1.2514;2.3001;35.0;26.1;-30.6;-21.49;213.09;-49.58;-81.99;5.0;47.637;39.468945;-0.340941;69.4;NaN;;17.702;;0 / 34;4152;2021-10-20 22:34:44:002
-2.5339;4.7801;-1.962;8.2935;3.8068;-3.5913;-5.2935;-5.0306;-0.7347;-1.7109;-0.803;2.2789;35.0;26.59;-29.29;-22.31;213.09;-49.58;-81.99;5.0;47.637;39.468945;-0.340941;69.4;NaN;;17.702;;0 / 34;4172;2021-10-20 22:34:44:022
0.392;4.358;-2.058;8.8585;-0.0287;-4.209;-8.1773;-3.7702;0.1742;-2.3347;-0.1445;2.332;35.0;27.11;-28.14;-22.61;194.91;-22.84;-113.41;5.0;47.637;39.468945;-0.340941;69.4;NaN;;17.702;;0 / 34;4192;2021-10-20 22:34:44:042
2.2931;4.131;-1.8019;7.4412;-5.6647;-2.9544;-10.8883;-2.8729;-0.1132;-3.2502;0.727;2.4593;35.0;27.19;-27.54;-23.04;194.91;-22.84;-113.41;5.0;47.637;39.468945;-0.340941;69.4;NaN;;17.702;;0 / 34;4212;2021-10-20 22:34:44:062
3.719;4.133;-1.481;6.9049;-6.5841;-2.2697;-12.8934;-2.0944;-0.7036;-4.423;1.9854;2.6327;35.0;27.6;-26.89;-22.99;259.19;35.28;-111.66;5.0;47.637;39.468945;-0.340941;69.4;NaN;;17.702;;0 / 34;4232;2021-10-20 22:34:44:082
3.894;4.133;-1.1201;6.9576;-6.6128;-1.9968;-12.8934;-2.0944;-0.7036;-4.423;1.9854;2.6327;35.0;27.49;-26.4;-22.69;259.19;35.28;-111.66;5.0;47.637;39.468945;-0.340941;69.4;NaN;;17.702;;0 / 34;4252;2021-10-20 22:34:44:102
0.617;4.038;0.3731;9.7252;-0.4549;1.2019;-10.284;-0.3271;-3.1359;-4.423;1.9854;2.6327;0.0;27.41;-26.16;-22.26;249.73;31.33;-93.8;5.0;47.637;39.468945;-0.340941;69.4;NaN;;17.702;;0 / 34;4272;2021-10-20 22:34:44:122
-1.285;4.5071;0.593;9.2464;3.0119;1.2593;-6.9547;-0.0108;-4.2041;-4.423;1.9854;2.6327;0.0;27.41;-26.1;-21.36;249.73;31.33;-93.8;5.0;47.637;39.468945;-0.340941;69.4;NaN;;17.702;;0 / 34;4292;2021-10-20 22:34:44:142
-2.958;5.3951;0.773;8.3749;4.9464;1.2498;-4.0445;-0.4432;-4.8723;-4.423;1.9854;2.6327;0.0;27.6;-26.16;-20.04;216.03;-17.89;-82.24;5.0;47.637;39.468945;-0.340941;69.4;NaN;;17.702;;0 / 34;4312;2021-10-20 22:34:44:162
-5.486;7.9061;4.866;6.7181;5.1571;4.9416;-2.0616;-1.4781;-6.8792;-4.423;1.9854;2.6327;0.0;27.79;-26.7;-18.66;216.03;-17.89;-82.24;5.0;47.637;39.468945;-0.340941;69.4;NaN;;17.702;;0 / 34;4332;2021-10-20 22:34:44:182
-12.269;7.403;10.5341;3.6679;7.0725;5.7174;4.6844;-1.1116;-13.7817;-4.423;1.9854;2.6327;0.0;28.09;-27.24;-17.04;225.72;-31.73;-53.66;5.0;47.637;39.468945;-0.340941;69.4;NaN;;17.702;;0 / 34;4352;2021-10-20 22:34:44:202
-29.6929;5.727;8.42;1.8531;9.1554;2.988;17.513;0.8713;-15.3047;-4.423;1.9854;2.6327;0.0;28.61;-27.24;-15.24;225.72;-31.73;-53.66;5.0;47.637;39.468945;-0.340941;69.4;NaN;;17.702;;0 / 34;4372;2021-10-20 22:34:44:222
-32.728;5.6891;2.4;1.6712;9.6534;0.4693;25.331;1.115;-8.1746;0.8825;-5.1826;-1.3199;0.0;28.91;-27.36;-13.26;246.59;-68.99;-31.81;5.0;47.637;39.468945;-0.340941;69.4;NaN;;17.702;;0 / 34;4392;2021-10-20 22:34:44:242
-31.543;5.541;-0.282;1.7047;9.6582;-0.0431;25.0203;0.8463;-2.2986;1.9257;-4.5713;-1.7421;0.0;29.7;-27.49;-10.86;246.59;-68.99;-31.81;5.0;47.637;39.468945;-0.340941;69.4;NaN;;17.702;;0 / 34;4412;2021-10-20 22:34:44:262
-26.567;3.915;3.138;1.312;9.6151;1.4078;19.7034;1.8537;-4.6661;2.4885;-4.1796;-1.8477;0.0;30.54;-27.49;-8.64;193.05;-79.99;-91.45;5.0;47.637;39.468945;-0.340941;69.4;NaN;;17.702;;0 / 34;4433;2021-10-20 22:34:44:283
-22.88;1.946;6.012;0.6943;9.4188;2.6384;14.3809;4.01;-8.1582;2.4885;-4.1796;-1.8477;0.0;31.01;-27.36;-6.66;193.05;-79.99;-91.45;5.0;49.482;39.468945;-0.340941;69.4;NaN;;17.702;;0 / 34;4452;2021-10-20 22:34:44:302
-14.043;-0.864;5.036;-0.1963;9.256;3.2322;8.0185;5.5409;-7.3546;2.4885;-4.1796;-1.8477;0.0;31.09;-27.49;-4.86;251.52;-73.85;-14.74;5.0;49.482;39.468945;-0.340941;69.4;NaN;;17.702;;0 / 34;4472;2021-10-20 22:34:44:322
-10.4861;-1.5889;3.894;-1.81;9.0501;3.3184;2.5401;6.2396;-5.5494;3.8988;-3.6127;-2.0104;0.0;31.39;-27.36;-3.36;251.52;-73.85;-14.74;5.0;49.482;39.468945;-0.340941;69.4;NaN;;17.702;;0 / 34;4492;2021-10-20 22:34:44:342
-6.814;-2.398;1.788;-2.6815;9.0357;2.7102;-0.7081;6.4047;-3.9117;3.8099;-3.0555;-1.9822;0.0;31.09;-27.6;-1.86;279.78;-67.33;28.61;5.0;49.482;39.468945;-0.340941;69.4;NaN;;17.702;;0 / 34;4512;2021-10-20 22:34:44:362
-5.7679;-2.8241;0.935;-4.0893;8.7724;1.5658;-2.7103;6.4548;-2.5121;3.616;-2.5024;-1.9042;0.0;30.6;-28.09;-0.41;279.78;-67.33;28.61;5.0;49.482;39.468945;-0.340941;69.4;NaN;;17.702;;0 / 34;4532;2021-10-20 22:34:44:382
-4.7989;-3.243;0.3731;-4.8363;8.4755;0.9816;-2.7103;6.4548;-2.5121;3.616;-2.5024;-1.9042;0.0;30.0;-28.39;0.54;328.07;-59.79;78.53;5.0;49.482;39.468945;-0.340941;69.4;NaN;;17.702;;0 / 34;4552;2021-10-20 22:34:44:402
-2.484;-4.105;-0.8711;-8.4611;4.549;-1.9824;-5.7176;6.6856;-0.5611;3.7276;-2.1182;-2.2811;0.0;29.29;-29.1;1.26;328.07;-59.79;78.53;5.0;49.482;39.468945;-0.340941;69.4;NaN;;17.702;;0 / 34;4572;2021-10-20 22:34:44:422
-0.99;-4.4179;-1.388;-9.2273;1.4413;-2.9975;-7.7174;6.6834;0.429;3.5743;-1.7843;-2.7467;0.0;28.39;-29.7;1.91;162.07;-27.63;103.19;5.0;49.482;39.468945;-0.340941;69.4;NaN;;17.702;;0 / 34;4592;2021-10-20 22:34:44:442
1.44;-4.861;-2.273;-8.509;-2.6624;-4.0797;-9.9785;6.288;1.038;3.1225;-1.0685;-3.3386;0.0;27.71;-30.19;2.59;162.07;-27.63;103.19;5.0;49.482;39.468945;-0.340941;69.4;NaN;;17.702;;0 / 34;4612;2021-10-20 22:34:44:462
2.135;-4.801;-2.721;-7.8673;-3.6392;-4.5873;-11.2827;5.7612;1.6358;2.559;-0.0444;-4.1583;0.0;27.0;-30.84;3.36;166.3;15.76;115.62;5.0;49.482;39.468945;-0.340941;69.4;NaN;;17.702;;0 / 34;4632;2021-10-20 22:34:44:482
2.6831;-4.488;-2.994;-7.2161;-4.4436;-4.9368;-12.1951;4.4882;1.9313;2.0661;1.2074;-5.0245;0.0;26.29;-31.39;4.31;166.3;15.76;115.62;5.0;49.482;39.468945;-0.340941;69.4;NaN;;17.702;;0 / 34;4652;2021-10-20 22:34:44:502
2.475;-4.231;-2.621;-8.7867;-2.6288;-3.4716;-12.1762;2.9357;1.3297;1.7775;2.4695;-5.621;0.0;25.91;-31.44;4.99;165.57;26.88;123.0;5.0;49.482;39.468945;-0.340941;69.4;NaN;;17.702;;0 / 34;4672;2021-10-20 22:34:44:522
-0.198;-3.303;-0.897;-9.3901;1.5562;-2.3559;-9.9351;1.236;-0.7169;1.6743;3.2319;-5.6676;0.0;25.69;-31.44;5.51;165.57;26.88;123.0;5.0;49.482;39.468945;-0.340941;69.4;NaN;;17.702;;0 / 34;4692;2021-10-20 22:34:44:542
-3.6739;-2.922;-1.074;-3.8882;8.5186;-2.9161;-6.5589;-0.3617;-1.6395;1.5751;3.4961;-5.1942;0.0;25.74;-31.69;6.36;178.94;-9.13;104.08;5.0;49.482;39.468945;-0.340941;69.4;NaN;;17.702;;0 / 34;4712;2021-10-20 22:34:44:562
-5.256;-2.094;-1.9811;-1.901;8.7149;-4.0797;-3.1762;-1.944;-1.196;1.4695;3.2427;-4.4774;0.0;25.61;-31.39;7.26;178.94;-9.13;104.08;5.0;49.482;39.468945;-0.340941;69.4;NaN;;17.702;;0 / 34;4732;2021-10-20 22:34:44:582
-5.191;-0.1721;-1.744;0.0575;9.5577;2.2027;-2.3385;-4.8475;-2.0039;1.0559;2.9032;-3.149;0.0;25.44;-31.26;8.29;88.17;-76.5;179.4;5.0;49.482;39.468945;-0.340941;69.4;NaN;;17.702;;0 / 34;4753;2021-10-20 22:34:44:603
-21.4819;1.211;7.796;0.2777;9.2799;3.1651;6.2158;-5.3227;-7.493;1.2491;0.7146;-1.0362;0.0;25.5;-31.09;9.19;88.17;-76.5;179.4;5.0;49.633;39.468945;-0.340941;69.4;NaN;;17.702;;0 / 34;4772;2021-10-20 22:34:44:622
-30.399;2.814;7.961;0.9433;9.4906;2.2841;18.4024;-6.9322;-11.4295;2.0624;-1.1109;1.5096;0.0;25.91;-30.49;10.14;223.74;-71.67;-12.83;5.0;49.633;39.468945;-0.340941;69.4;NaN;;17.702;;0 / 34;4792;2021-10-20 22:34:44:642
-34.506;5.304;2.841;1.3886;9.6534;1.0199;26.0352;-9.0792;-7.685;2.401;-1.4173;2.5216;0.0;26.51;-29.59;11.04;223.74;-71.67;-12.83;5.0;49.633;39.468945;-0.340941;69.4;NaN;;17.702;;0 / 34;4812;2021-10-20 22:34:44:662
-31.095;6.809;-0.945;2.1835;9.5529;-0.3639;23.281;-11.0339;-1.4186;2.3486;-1.2558;2.8648;0.0;27.3;-28.26;11.76;190.72;-79.88;-53.7;5.0;49.633;39.468945;-0.340941;69.4;NaN;;17.702;;0 / 34;4832;2021-10-20 22:34:44:682
-25.3721;7.202;-0.737;2.7629;9.4092;-0.1197;23.281;-11.0339;-1.4186;2.3485;-1.2558;2.8648;0.0;28.2;-27.0;12.84;190.72;-79.88;-53.7;5.0;49.633;39.468945;-0.340941;69.4;NaN;;17.702;;0 / 34;4853;2021-10-20 22:34:44:703
-14.261;6.534;3.9971;4.0223;8.5856;2.5139;6.9113;-10.2789;-4.8669;2.3485;-1.2558;2.8648;0.0;29.04;-25.5;13.31;175.3;-68.54;-71.64;5.0;49.633;39.468945;-0.340941;69.4;NaN;;17.702;;0 / 34;4872;2021-10-20 22:34:44:722
-11.8121;5.8571;3.2981;4.2952;8.6143;1.8675;2.8533;-9.0011;-4.4728;2.3485;-1.2558;2.8648;0.0;30.19;-24.3;13.69;175.3;-68.54;-71.64;5.0;49.633;39.468945;-0.340941;69.4;NaN;;17.702;;0 / 34;4892;2021-10-20 22:34:44:742
-9.9619;4.7801;0.7151;4.2425;8.7915;0.929;0.7468;-7.5138;-1.6143;2.3485;-1.2558;2.8648;0.0;31.44;-22.8;13.56;179.33;-61.47;-66.5;5.0;49.633;39.468945;-0.340941;69.4;NaN;;17.702;;0 / 34;4912;2021-10-20 22:34:44:762
-7.0991;3.339;-1.4141;4.1563;8.7101;-1.7669;-1.2694;-6.0622;0.8158;2.3485;-1.2558;2.8648;0.0;32.64;-21.3;13.69;179.33;-61.47;-66.5;5.0;49.633;39.468945;-0.340941;69.4;NaN;;17.702;;0 / 34;4933;2021-10-20 22:34:44:783
-5.268;3.042;-1.026;4.5777;8.4994;-1.7238;-3.3264;-4.7548;1.2778;2.3485;-1.2558;2.8648;0.0;33.54;-19.8;13.91;179.33;-61.47;-66.5;5.0;49.633;39.468945;-0.340941;69.4;NaN;;17.702;;0 / 34;4952;2021-10-20 22:34:44:802
-3.102;2.8121;-0.485;6.9528;6.8474;-0.9577;-6.2858;-4.0601;0.7701;2.3485;-1.2558;2.8648;0.0;34.39;-18.36;13.99;142.15;-60.08;-110.63;5.0;49.633;39.468945;-0.340941;69.4;NaN;;17.702;;0 / 34;4972;2021-10-20 22:34:44:822
-0.459;2.2451;0.495;9.4379;1.0487;2.4469;-8.684;-3.1076;0.13;3.9335;-0.8749;2.4661;0.0;34.91;-17.16;14.29;142.15;-60.08;-110.63;0.0;49.633;39.468945;-0.340941;69.4;NaN;;17.702;;0 / 34;4992;2021-10-20 22:34:44:842
0.581;1.8521;0.737;8.5234;-3.1651;3.6823;-10.2016;-2.1365;0.0112;4.8337;-1.3335;2.3254;0.0;35.29;-15.66;14.16;166.53;-6.14;-75.47;0.0;49.633;39.468945;-0.340941;69.4;NaN;;17.702;;0 / 34;5012;2021-10-20 22:34:44:862
1.038;1.563;0.7031;7.5944;-5.2864;3.2561;-10.2016;-2.1365;0.0112;4.8337;-1.3335;2.3254;0.0;35.59;-14.4;14.46;166.53;-6.14;-75.47;0.0;49.633;39.468945;-0.340941;69.4;NaN;;17.702;;0 / 34;5032;2021-10-20 22:34:44:882
1.5581;1.689;0.507;6.3782;-7.3502;1.2163;-10.8098;-1.174;0.3634;5.6833;-1.6411;2.2637;0.0;35.7;-12.66;14.94;21.78;48.54;-79.2;0.0;49.633;39.468945;-0.340941;69.4;NaN;;17.702;;0 / 34;5052;2021-10-20 22:34:44:902
0.7301;2.204;1.0121;8.6766;-2.0016;4.1085;-10.7132;-0.2306;1.1534;7.9903;-3.7733;2.461;0.0;35.64;-10.56;15.96;21.78;48.54;-79.2;0.0;49.633;39.468945;-0.340941;69.4;NaN;;17.702;;0 / 34;5072;2021-10-20 22:34:44:922
-1.555;3.387;1.407;8.1547;4.3574;3.2705;-8.5779;-0.309;1.2621;6.7463;-5.1037;2.6568;0.0;35.34;-8.7;16.61;156.05;11.78;-64.66;0.0;49.633;39.468945;-0.340941;69.4;NaN;;17.702;;0 / 34;5092;2021-10-20 22:34:44:942
-3.8959;4.638;1.902;6.9623;6.1675;3.1125;-5.2345;-1.1549;1.5194;5.2113;-5.418;2.5154;0.0;35.04;-6.49;17.46;156.05;11.78;-64.66;0.0;41.122;39.468945;-0.340941;69.4;NaN;;17.702;;0 / 34;5112;2021-10-20 22:34:44:962
-8.04;6.584;5.5481;5.1523;6.8283;4.7932;-5.2345;-1.1549;1.5194;3.7825;-4.2853;1.3129;0.0;34.74;-4.14;18.19;175.58;-38.96;-65.91;0.0;41.122;39.468945;-0.340941;69.4;NaN;;17.702;;0 / 34;5132;2021-10-20 22:34:44:982
-28.989;6.5291;10.982;1.9201;9.074;3.1939;12.9284;-3.2984;-7.5884;2.582;-2.4725;-0.0912;0.0;34.14;-1.56;19.39;175.58;-38.96;-65.91;0.0;41.122;39.468945;-0.340941;69.4;NaN;;17.702;;0 / 34;5152;2021-10-20 22:34:45:002
-34.1261;5.811;8.0591;1.5562;9.4667;2.0399;24.1983;-2.2756;-5.8875;1.9396;-1.0948;-0.8394;0.0;33.11;0.9;20.34;209.95;-67.67;-31.01;0.0;41.122;39.468945;-0.340941;69.4;NaN;;17.702;;0 / 34;5172;2021-10-20 22:34:45:022
-33.4579;3.932;5.258;1.0343;9.6295;1.5562;26.341;-0.9057;-1.8613;1.6906;-0.3567;-1.1755;0.0;31.99;3.9;21.24;209.95;-67.67;-31.01;5.0;41.122;39.468945;-0.340941;69.4;NaN;;17.702;;0 / 34;5192;2021-10-20 22:34:45:042
-25.011;-0.339;9.7541;0.4597;9.4954;2.4229;22.1154;1.638;-2.6978;1.5158;-0.0869;-1.3827;0.0;30.9;6.41;22.01;202.04;-79.02;-33.61;5.0;41.122;39.468945;-0.340941;69.4;NaN;;17.702;;0 / 34;5213;2021-10-20 22:34:45:063
-20.451;-2.0839;10.682;-1.0008;8.6048;4.5969;15.8653;4.287;-6.4475;1.3581;-0.0826;-1.547;0.0;29.81;8.7;22.56;202.04;-79.02;-33.61;5.0;41.122;39.468945;-0.340941;69.4;NaN;;17.702;;0 / 34;5232;2021-10-20 22:34:45:082
-16.164;-3.059;9.191;-1.6951;8.3893;4.7884;9.7515;6.0425;-6.5249;1.2535;-0.1416;-1.6804;0.0;28.8;10.74;22.99;254.8;-61.33;12.28;5.0;41.122;39.468945;-0.340941;69.4;NaN;;17.702;;0 / 34;5252;2021-10-20 22:34:45:102
-10.512;-3.6;6.2951;-2.6288;8.1403;4.7932;4.4978;6.5967;-3.9702;1.1869;-0.1833;-1.8;3.0;28.14;12.3;22.91;254.8;-61.33;12.28;5.0;41.122;39.468945;-0.340941;69.4;NaN;;17.702;;0 / 34;5272;2021-10-20 22:34:45:122
-8.6;-3.8921;5.1911;-3.6392;7.8147;4.6735;0.7398;6.603;-2.2722;1.1287;-0.1352;-1.9253;3.0;27.71;13.56;22.74;273.6;-56.12;28.74;5.0;41.122;39.468945;-0.340941;69.4;NaN;;17.702;;0 / 34;5292;2021-10-20 22:34:45:142
-7.14;-4.0571;4.2101;-4.4628;7.5369;4.4149;-1.414;6.6869;-0.9342;1.0535;-0.0418;-2.0435;3.0;27.49;14.34;22.26;273.6;-56.12;28.74;5.0;41.122;39.468945;-0.340941;69.4;NaN;;17.702;;0 / 34;5312;2021-10-20 22:34:45:162
-5.737;-4.634;2.8001;-5.9472;7.0725;3.2848;-3.0166;6.8747;0.4646;0.8569;-0.0624;-2.1989;3.0;28.01;15.0;21.54;290.21;-50.21;45.31;5.0;41.122;39.468945;-0.340941;69.4;NaN;;17.702;;0 / 34;5332;2021-10-20 22:34:45:182
-3.178;-5.534;0.179;-8.6766;4.5729;-0.0431;-4.5872;7.1135;2.0402;0.474;-0.2401;-2.4296;3.0;28.44;15.3;20.76;290.21;-50.21;45.31;5.0;41.122;39.468945;-0.340941;69.4;NaN;;17.702;;0 / 34;5352;2021-10-20 22:34:45:202
-0.9671;-5.6479;-1.476;-9.3374;2.1069;-2.1261;-6.5851;7.0444;3.9764;-0.0186;-0.3866;-2.7226;3.0;28.74;15.41;19.69;323.5;-27.79;90.28;5.0;41.122;39.468945;-0.340941;69.4;NaN;;17.702;;0 / 34;5372;2021-10-20 22:34:45:222
0.677;-5.541;-2.34;-8.8777;-1.4078;-3.9217;-8.9748;6.4106;5.518;-0.6872;-0.3058;-3.084;3.0;29.59;15.6;18.24;323.5;-27.79;90.28;5.0;41.122;39.468945;-0.340941;69.4;NaN;;17.702;;0 / 34;5393;2021-10-20 22:34:45:243
1.919;-5.433;-2.81;-8.3845;-2.6528;-4.3431;-10.6418;5.4397;6.3245;-1.7341;-0.1594;-3.5357;3.0;30.41;15.84;16.91;342.56;8.25;113.83;5.0;41.122;39.468945;-0.340941;69.4;NaN;;17.702;;0 / 34;5412;2021-10-20 22:34:45:262
1.644;-5.5931;-3.023;-8.3079;-2.9353;-4.3096;-10.6418;5.4397;6.3245;-1.7341;-0.1594;-3.5355;3.0;31.09;16.01;15.66;342.56;8.25;113.83;5.0;41.417;39.468945;-0.340941;69.4;NaN;;17.702;;0 / 34;5432;2021-10-20 22:34:45:282
0.9071;-5.7079;-3.3101;-8.4707;-1.0104;-4.8315;-10.062;3.6848;6.8959;-3.153;-0.3149;-4.0529;3.0;31.61;16.2;14.59;16.06;12.09;118.97;5.0;41.417;39.468945;-0.340941;69.4;NaN;;17.702;;0 / 34;5452;2021-10-20 22:34:45:302
-0.6911;-5.6291;-2.8961;-8.6766;1.5658;-4.2952;-8.0965;2.3363;6.6315;-3.153;-0.3149;-4.0529;3.0;32.34;16.26;13.39;16.06;12.09;118.97;5.0;41.417;39.468945;-0.340941;69.4;NaN;;17.702;;0 / 34;5472;2021-10-20 22:34:45:322
-4.995;-4.3391;0.8441;-7.9775;5.5929;-1.1349;-5.525;0.6762;4.9911;-3.153;-0.3149;-4.0529;3.0;32.59;16.2;12.54;7.94;-9.19;116.34;5.0;41.417;39.468945;-0.340941;69.4;NaN;;17.702;;0 / 34;5492;2021-10-20 22:34:45:342
-10.134;-3.1759;4.461;-4.3431;8.2265;3.1029;-0.4597;-1.7102;0.5738;-3.153;-0.3149;-4.0529;3.0;32.94;16.14;11.59;7.94;-9.19;116.34;5.0;41.417;39.468945;-0.340941;69.4;NaN;;17.702;;0 / 34;5513;2021-10-20 22:34:45:363
-19.608;-2.786;5.9501;-1.4605;9.1937;3.0837;10.6269;-3.051;-3.1198;-3.153;-0.3149;-4.0529;3.0;33.3;16.31;11.16;312.6;-57.02;54.46;5.0;41.417;39.468945;-0.340941;69.4;NaN;;17.702;;0 / 34;5532;2021-10-20 22:34:45:382
-30.753;-0.138;0.15;0.0622;9.8067;-0.1915;21.4051;-4.6313;0.145;-3.153;-0.3149;-4.0529;3.0;33.3;16.26;10.99;312.6;-57.02;54.46;5.0;41.417;39.468945;-0.340941;69.4;NaN;;17.702;;0 / 34;5552;2021-10-20 22:34:45:402
-29.98;1.9571;-4.356;0.6895;9.6678;-1.5179;23.2535;-6.9024;5.5767;-3.153;-0.3149;-4.0529;3.0;33.24;16.74;10.86;88.99;-88.82;-162.0;5.0;41.417;39.468945;-0.340941;69.4;NaN;;17.702;;0 / 34;5572;2021-10-20 22:34:45:422
-25.638;2.508;-4.7321;0.9816;9.5912;-1.7813;18.5032;-7.5583;7.2918;-3.153;-0.3149;-4.0529;3.0;33.11;17.34;10.61;88.99;-88.82;-162.0;5.0;41.417;39.468945;-0.340941;69.4;NaN;;17.702;;0 / 34;5592;2021-10-20 22:34:45:442
-15.5291;2.5301;-1.572;1.6855;9.6295;-0.7997;10.0302;-7.0722;5.1958;5.2621;3.1048;1.4123;7.0;32.7;17.81;10.14;108.87;-78.55;-138.19;5.0;41.417;39.468945;-0.340941;69.4;NaN;;17.702;;0 / 34;5613;2021-10-20 22:34:45:463
-12.399;2.759;-0.196;2.2841;9.5385;0.067;10.0302;-7.0722;5.1958;5.1652;2.6012;1.4374;7.0;32.34;18.6;9.71;108.87;-78.55;-138.19;5.0;41.417;39.468945;-0.340941;69.4;NaN;;17.702;;0 / 34;5633;2021-10-20 22:34:45:483
-10.374;2.994;0.167;2.6336;9.4475;-0.0958;1.2117;-6.6153;1.5202;4.9884;2.1819;1.4473;7.0;32.1;19.2;9.24;182.57;-72.64;-72.28;5.0;41.417;39.468945;-0.340941;69.4;NaN;;17.702;;0 / 34;5653;2021-10-20 22:34:45:503
-10.847;2.862;-1.598;2.4612;9.3565;-1.6137;1.8056;-5.9934;3.1002;4.9396;2.019;1.4616;7.0;31.99;19.61;9.11;182.57;-72.64;-72.28;5.0;41.417;39.468945;-0.340941;69.4;NaN;;17.702;;0 / 34;5672;2021-10-20 22:34:45:522
-10.397;2.838;-2.7641;2.5235;9.1363;-2.5235;1.3628;-5.4187;4.9684;5.0865;2.0339;1.5364;7.0;31.8;20.16;8.51;120.59;-72.54;-123.25;5.0;41.417;39.468945;-0.340941;69.4;NaN;;17.702;;0 / 34;5692;2021-10-20 22:34:45:542
-8.243;2.4;-2.846;2.6097;8.9016;-3.1843;-0.7504;-4.514;5.1016;5.1369;1.9667;1.6416;7.0;31.61;20.76;7.99;120.59;-72.54;-123.25;5.0;41.417;39.468945;-0.340941;69.4;NaN;;17.702;;0 / 34;5712;2021-10-20 22:34:45:562
-5.79;1.776;-2.8;2.6145;8.3701;-4.391;-0.7504;-4.514;5.1016;5.1369;1.9667;1.6416;7.0;31.39;20.94;7.44;98.22;-65.18;-140.66;5.0;41.417;39.468945;-0.340941;69.4;NaN;;17.702;;0 / 34;5732;2021-10-20 22:34:45:582
-0.3941;1.311;-1.354;5.9137;3.1843;-7.1491;-7.6656;-2.2548;4.1409;4.682;1.5459;1.7524;7.0;31.39;20.76;7.14;98.22;-65.18;-140.66;5.0;54.873;39.468945;-0.340941;69.4;NaN;;17.702;;0 / 34;5752;2021-10-20 22:34:45:602
0.6911;1.563;0.318;8.4803;-3.6966;3.2609;-9.974;-1.9038;2.3196;4.3988;1.3138;1.8609;7.0;31.31;20.76;7.01;61.8;-18.94;-140.4;5.0;54.873;39.468945;-0.340941;69.4;NaN;;17.702;;0 / 34;5772;2021-10-20 22:34:45:622
0.5;1.8401;1.898;6.4883;-1.5036;7.197;-10.2362;-1.7788;-0.2308;4.0807;1.1025;1.9449;7.0;31.14;20.64;7.01;61.8;-18.94;-140.4;5.0;54.873;39.468945;-0.340941;69.4;NaN;;17.702;;0 / 34;5792;2021-10-20 22:34:45:642
0.564;2.247;2.178;6.6942;-1.5897;6.9863;-10.2362;-1.7788;-0.2308;3.783;0.9031;2.1198;7.0;31.01;20.51;6.79;324.97;9.33;-43.78;5.0;54.873;39.468945;-0.340941;69.4;NaN;;17.702;;0 / 34;5812;2021-10-20 22:34:45:662
0.071;3.035;0.773;9.5529;0.0814;2.2218;-10.3149;-1.4518;-0.0678;3.4452;0.5893;2.6616;7.0;30.71;20.4;6.66;324.97;9.33;-43.78;5.0;54.873;39.468945;-0.340941;69.4;NaN;;17.702;;0 / 34;5832;2021-10-20 22:34:45:682
-1.1629;4.31;0.864;9.1746;2.8347;2.0016;-9.3002;-1.5095;0.4056;2.7735;-0.1382;3.7051;7.0;30.71;20.21;6.66;359.41;-0.48;-76.91;5.0;54.873;39.468945;-0.340941;69.4;NaN;;17.702;;0 / 34;5852;2021-10-20 22:34:45:702
-2.7281;5.622;1.9001;8.2504;4.2713;3.1412;-7.4087;-2.0793;-0.0494;1.8491;-1.3047;4.7721;7.0;30.9;19.86;6.54;359.41;-0.48;-76.91;5.0;54.873;39.468945;-0.340941;69.4;NaN;;17.702;;0 / 34;5872;2021-10-20 22:34:45:722
-8.2721;6.7571;7.41;4.5107;6.5457;5.7413;-3.912;-3.122;-2.9798;0.9673;-2.5008;4.2914;7.0;31.2;19.44;6.24;303.25;-25.82;-69.16;5.0;54.873;39.468945;-0.340941;69.4;NaN;;17.702;;0 / 34;5893;2021-10-20 22:34:45:743
-26.033;4.533;12.81;2.7438;7.6231;5.5258;-3.912;-3.122;-2.9798;0.0909;-2.6001;2.0244;7.0;31.09;19.2;6.36;303.25;-25.82;-69.16;5.0;54.873;39.468945;-0.340941;69.4;NaN;;17.702;;0 / 34;5912;2021-10-20 22:34:45:762
-34.683;3.612;8.6861;0.9146;9.6534;1.47;22.3954;0.1017;-8.8145;-0.2047;-1.5957;0.3068;11.0;31.2;19.14;6.71;251.37;-69.06;-19.55;5.0;54.873;39.468945;-0.340941;69.4;NaN;;17.702;;0 / 34;5932;2021-10-20 22:34:45:782
-33.589;2.166;-0.9829;0.8045;9.7731;0.0048;28.2278;0.5291;-0.994;0.0274;-0.6607;-0.532;11.0;31.14;19.14;7.14;251.37;-69.06;-19.55;5.0;54.873;39.468945;-0.340941;69.4;NaN;;17.702;;0 / 34;5952;2021-10-20 22:34:45:802
-29.652;0.663;-0.234;0.0862;9.8067;0.0814;23.9236;2.0017;3.4824;0.2689;-0.0943;-0.9355;11.0;31.09;19.26;7.69;165.11;-85.29;-89.66;5.0;54.873;39.468945;-0.340941;69.4;NaN;;17.702;;0 / 34;5972;2021-10-20 22:34:45:822
-16.59;-3.298;5.292;-1.2115;9.4906;2.1596;15.2665;4.8081;-0.0489;0.1845;0.0986;-1.1433;11.0;31.31;19.56;8.34;165.11;-85.29;-89.66;5.0;54.873;39.468945;-0.340941;69.4;NaN;;17.702;;0 / 34;5992;2021-10-20 22:34:45:842
-11.815;-4.15;5.57;-2.399;8.7963;3.6105;6.7818;6.9102;-3.0593;-0.0855;0.1133;-1.2665;11.0;31.5;19.8;8.81;291.31;-75.38;29.29;5.0;54.873;39.468945;-0.340941;69.4;NaN;;17.702;;0 / 34;6012;2021-10-20 22:34:45:862
-8.88;-4.686;3.983;-3.6296;8.2025;3.9648;6.7818;6.9102;-3.0593;-0.0855;0.1133;-1.2665;11.0;31.91;20.1;9.36;291.31;-75.38;29.29;5.0;54.873;39.468945;-0.340941;69.4;NaN;;17.702;;0 / 34;6032;2021-10-20 22:34:45:882
-6.474;-5.0291;0.698;-6.1148;7.6519;0.4405;-2.1059;7.7507;0.7614;-0.0855;0.1133;-1.2665;11.0;32.59;20.94;9.84;325.32;-54.16;65.14;5.0;54.873;39.468945;-0.340941;69.4;NaN;;17.702;;0 / 34;6052;2021-10-20 22:34:45:902
-5.6291;-5.3111;-1.136;-6.7708;6.8953;-1.6807;-3.393;7.7268;3.2038;-0.0855;0.1133;-1.2665;11.0;33.6;21.41;9.79;325.32;-54.16;65.14;5.0;52.14;39.468945;-0.340941;69.4;NaN;;17.702;;0 / 34;6072;2021-10-20 22:34:45:922
-2.826;-5.9291;-2.877;-7.7237;4.8123;-3.6583;-5.2491;7.7624;4.7611;-0.0855;0.1133;-1.2665;11.0;34.69;22.14;9.49;359.58;-44.67;103.94;5.0;52.14;39.468945;-0.340941;69.4;NaN;;17.702;;0 / 34;6092;2021-10-20 22:34:45:942
-1.8469;-6.1489;-2.9171;-8.4611;2.8395;-4.0701;-7.3868;7.7158;5.0729;-0.0855;0.1133;-1.2665;11.0;35.81;22.44;8.76;359.58;-44.67;103.94;5.0;52.14;39.468945;-0.340941;69.4;NaN;;17.702;;0 / 34;6113;2021-10-20 22:34:45:963
-0.916;-6.3761;-2.776;-9.2033;-0.723;-3.3088;-9.1843;7.4216;4.8103;-4.287;0.0283;-2.5794;11.0;37.09;23.04;7.99;14.83;-5.46;112.86;5.0;52.14;39.468945;-0.340941;69.4;NaN;;17.702;;0 / 34;6132;2021-10-20 22:34:45:982
1.785;-6.589;-2.135;-9.074;-2.2889;-2.9449;-10.7098;6.72;4.9183;-4.287;0.0283;-2.5794;11.0;38.34;23.46;6.84;14.83;-5.46;112.86;5.0;52.14;39.468945;-0.340941;69.4;NaN;;17.702;;0 / 34;6152;2021-10-20 22:34:46:002
2.216;-6.726;-2.2061;-8.9256;-2.8395;-2.9113;-11.2584;5.7246;5.6395;-4.287;0.0283;-2.5794;11.0;39.54;23.94;5.81;25.33;13.49;107.98;5.0;52.14;39.468945;-0.340941;69.4;NaN;;17.702;;0 / 34;6173;2021-10-20 22:34:46:023
1.814;-7.0369;-2.171;-9.2081;-1.7573;-2.8778;-10.5534;4.7752;6.3425;-9.5616;-5.5146;-2.9146;11.0;40.44;24.41;4.69;25.33;13.49;107.98;5.0;52.14;39.468945;-0.340941;69.4;NaN;;17.702;;0 / 34;6192;2021-10-20 22:34:46:042
0.7301;-6.783;-2.472;-9.1458;-0.7422;-3.462;-10.5534;4.7752;6.3425;-9.5616;-5.5146;-2.9146;11.0;40.99;24.3;3.71;27.18;10.32;107.36;5.0;52.14;39.468945;-0.340941;69.4;NaN;;17.702;;0 / 34;6212;2021-10-20 22:34:46:062
-1.275;-3.7931;-1.539;-8.5856;2.5043;-4.0175;-6.0751;1.0048;7.7232;-8.6296;-5.7315;-3.3029;11.0;41.4;24.36;3.19;27.18;10.32;107.36;5.0;52.14;39.468945;-0.340941;69.4;NaN;;17.702;;0 / 34;6232;2021-10-20 22:34:46:082
-5.115;-1.689;2.745;-1.6951;8.2169;5.0805;-4.0744;-3.1671;4.5949;-6.7268;-5.038;-3.1467;11.0;41.7;24.11;2.81;24.4;-14.8;115.08;5.0;52.14;39.468945;-0.340941;69.4;NaN;;17.702;;0 / 34;6252;2021-10-20 22:34:46:102
-14.4979;0.651;9.725;0.498;8.3031;5.1954;6.6762;-6.7933;-4.2415;-5.3871;-3.603;-1.4052;50.0;42.11;24.36;2.76;24.4;-14.8;115.08;5.0;52.14;39.468945;-0.340941;69.4;NaN;;17.702;;0 / 34;6272;2021-10-20 22:34:46:122
-37.888;5.163;7.527;0.9194;9.3518;2.806;25.7417;-9.1501;-7.352;-0.9706;1.288;0.8338;50.0;42.41;24.24;3.19;279.37;-57.85;-5.48;5.0;52.14;39.468945;-0.340941;69.4;NaN;;17.702;;0 / 34;6292;2021-10-20 22:34:46:142
-36.153;8.258;-0.196;1.7621;9.6007;0.9337;25.7417;-9.1501;-7.352;-0.9706;1.288;0.8338;50.0;42.19;24.6;4.01;279.37;-57.85;-5.48;5.0;52.14;39.468945;-0.340941;69.4;NaN;;17.702;;0 / 34;6312;2021-10-20 22:34:46:162
-30.6311;8.7911;-5.1941;2.9113;9.1842;-1.834;24.7184;-14.1964;9.2154;6.2946;4.0985;0.7616;50.0;41.64;25.2;4.61;146.35;-74.31;-110.73;5.0;52.14;39.468945;-0.340941;69.4;NaN;;17.702;;0 / 34;6332;2021-10-20 22:34:46:182
-19.366;7.152;-2.1559;3.5003;9.1315;-0.7422;15.301;-12.164;8.6601;6.409;3.6131;0.986;50.0;40.91;25.61;4.99;146.35;-74.31;-110.73;5.0;52.14;39.468945;-0.340941;69.4;NaN;;17.702;;0 / 34;6352;2021-10-20 22:34:46:202
-13.004;6.668;1.701;4.5346;8.6;1.2881;7.2438;-10.6732;4.0628;5.9599;2.9765;1.1524;50.0;40.2;26.21;5.16;153.09;-68.6;-101.97;5.0;52.14;39.468945;-0.340941;69.4;NaN;;17.702;;0 / 34;6372;2021-10-20 22:34:46:222
-10.6511;6.216;1.704;4.9273;8.3797;1.2881;2.9509;-9.4499;2.8822;5.4219;2.4177;1.2613;50.0;39.6;26.76;5.21;153.09;-68.6;-101.97;5.0;52.14;39.468945;-0.340941;69.4;NaN;;17.702;;0 / 34;6392;2021-10-20 22:34:46:242
-8.5811;5.0;-0.378;4.9225;8.4803;-0.1293;0.8975;-7.8648;4.2946;4.9897;2.108;1.2778;50.0;38.89;27.11;5.21;194.6;-58.71;-75.35;5.0;50.666;39.468945;-0.340941;69.4;NaN;;17.702;;0 / 34;6412;2021-10-20 22:34:46:262
-7.197;4.425;-1.445;5.0422;8.2791;-1.4892;0.8975;-7.8648;4.2946;4.8377;2.0662;1.3017;50.0;38.34;27.11;5.29;194.6;-58.71;-75.35;5.0;50.666;39.468945;-0.340941;69.4;NaN;;17.702;;0 / 34;6432;2021-10-20 22:34:46:282
-3.676;3.384;-1.68;6.5745;6.5218;-3.2322;-3.8778;-4.8339;6.0068;4.8637;2.064;1.4803;50.0;37.5;27.0;4.74;110.06;-50.23;-115.12;5.0;50.666;39.468945;-0.340941;69.4;NaN;;17.702;;0 / 34;6452;2021-10-20 22:34:46:302
-0.579;2.6681;-1.122;9.1075;0.8571;-3.5291;-7.2521;-3.4023;5.4063;4.7086;1.9115;1.7278;50.0;37.01;26.21;4.31;110.06;-50.23;-115.12;5.0;50.666;39.468945;-0.340941;69.4;NaN;;17.702;;0 / 34;6472;2021-10-20 22:34:46:322
1.136;2.192;-0.483;8.2025;-5.1427;-1.5562;-9.9615;-2.0669;4.3326;4.2114;1.4905;1.9657;50.0;36.9;25.2;4.14;37.84;-5.02;-111.18;5.0;50.666;39.468945;-0.340941;69.4;NaN;;17.702;;0 / 34;6492;2021-10-20 22:34:46:342
2.477;1.7951;0.222;5.9089;-7.8195;0.3543;-9.9615;-2.0669;4.3326;4.2114;1.4905;1.9657;50.0;36.79;24.11;4.14;37.84;-5.02;-111.18;5.0;50.666;39.468945;-0.340941;69.4;NaN;;17.702;;0 / 34;6512;2021-10-20 22:34:46:362
2.783;1.85;0.2561;5.4109;-8.1738;0.2394;-11.913;-0.129;2.7999;3.4352;0.6839;2.9147;50.0;36.6;23.21;4.61;352.22;56.56;-73.15;5.0;50.666;39.468945;-0.340941;69.4;NaN;;17.702;;0 / 34;6532;2021-10-20 22:34:46:382
3.059;1.7561;-1.6219;4.6591;-7.8721;-3.5386;-11.7239;0.7915;3.4139;3.4099;0.6991;3.8908;50.0;36.41;21.9;4.86;352.22;56.56;-73.15;5.0;50.666;39.468945;-0.340941;69.4;NaN;;17.702;;0 / 34;6552;2021-10-20 22:34:46:402
3.284;1.677;-2.5391;3.3232;-6.8283;-6.2058;-11.9039;2.139;5.0153;3.3997;1.2737;5.7769;50.0;36.49;20.7;5.04;50.95;48.25;-145.12;5.0;50.666;39.468945;-0.340941;69.4;NaN;;17.702;;0 / 34;6572;2021-10-20 22:34:46:422
1.424;1.677;-0.9469;5.7317;-6.2776;-4.8937;-10.9534;3.6918;4.5923;2.973;2.7913;7.5624;50.0;36.19;19.86;5.04;50.95;48.25;-145.12;5.0;50.666;39.468945;-0.340941;69.4;NaN;;17.702;;0 / 34;6592;2021-10-20 22:34:46:442
-1.74;3.183;2.259;7.9152;3.1125;4.8794;-8.2769;4.6915;1.4703;2.3545;3.8921;8.0006;71.0;36.11;19.01;5.46;42.13;39.79;-130.49;5.0;50.666;39.468945;-0.340941;69.4;NaN;;17.702;;0 / 34;6613;2021-10-20 22:34:46:463
-5.3441;5.1551;5.019;5.047;6.7373;5.0326;-1.6157;2.6715;-3.7;2.3545;3.8919;8.0006;71.0;36.19;18.3;5.51;42.13;39.79;-130.49;5.0;50.666;39.468945;-0.340941;69.4;NaN;;17.702;;0 / 34;6632;2021-10-20 22:34:46:482
-18.842;7.1951;6.6851;3.4812;8.5473;3.3184;6.3866;0.9926;-5.335;2.3545;3.8919;8.0006;71.0;35.94;17.7;5.51;250.88;-43.39;-45.08;5.0;50.666;39.468945;-0.340941;69.4;NaN;;17.702;;0 / 34;6653;2021-10-20 22:34:46:503
-26.2549;7.398;5.471;2.7485;9.1842;2.0686;16.7505;0.1847;-4.7108;2.3545;3.8919;8.0006;71.0;35.7;17.34;5.76;250.88;-43.39;-45.08;5.0;50.666;39.468945;-0.340941;69.4;NaN;;17.702;;0 / 34;6672;2021-10-20 22:34:46:522
-30.088;6.821;4.035;2.0542;9.5289;1.0726;24.5125;0.8076;-2.0413;2.3545;3.8919;8.0006;71.0;35.59;17.16;5.76;214.69;-69.47;-53.03;5.0;50.666;39.468945;-0.340941;69.4;NaN;;17.702;;0 / 34;6692;2021-10-20 22:34:46:542
-33.463;5.402;0.95;1.6328;9.6678;0.3256;24.5125;0.8076;-2.0413;2.3545;3.8919;8.0006;71.0;35.34;17.7;5.46;214.69;-69.47;-53.03;5.0;50.666;39.468945;-0.340941;69.4;NaN;;17.702;;0 / 34;6712;2021-10-20 22:34:46:562
-26.9569;2.0051;1.0121;0.6321;9.7779;0.4549;22.4241;3.8134;0.9529;2.3545;3.8919;8.0006;71.0;34.99;18.24;4.99;214.69;-69.47;-53.03;5.0;48.061;39.468945;-0.340941;69.4;NaN;;17.702;;0 / 34;6732;2021-10-20 22:34:46:582
-20.013;-0.0551;2.793;-0.1245;9.6917;1.494;15.2628;5.7571;-0.7554;2.3545;3.8919;8.0006;71.0;34.8;18.36;4.61;208.81;-85.45;-54.26;5.0;48.061;39.468945;-0.340941;69.4;NaN;;17.702;;0 / 34;6752;2021-10-20 22:34:46:602
-15.58;-1.249;2.987;-0.9194;9.5912;1.8244;8.5694;6.999;-1.6489;-0.2175;0.0509;-2.5836;71.0;34.8;18.84;4.01;208.81;-85.45;-54.26;5.0;48.061;39.468945;-0.340941;69.4;NaN;;17.702;;0 / 34;6772;2021-10-20 22:34:46:622
-11.0629;-2.589;1.4381;-2.4134;9.4427;1.0965;3.6944;8.0393;-0.2356;-0.1643;0.142;-2.5593;71.0;34.69;19.01;3.19;297.18;-77.98;26.75;5.0;48.061;39.468945;-0.340941;69.4;NaN;;17.702;;0 / 34;6792;2021-10-20 22:34:46:642
-8.3629;-3.269;0.4691;-3.8403;9.0166;0.3831;3.6944;8.0393;-0.2356;-0.1643;0.142;-2.5593;71.0;34.8;19.31;2.34;297.18;-77.98;26.75;5.0;48.061;39.468945;-0.340941;69.4;NaN;;17.702;;0 / 34;6812;2021-10-20 22:34:46:662
-3.963;-4.839;-1.29;-7.695;5.6024;-2.3655;-3.466;9.2056;2.0085;0.0133;0.3693;-2.6569;71.0;35.4;19.56;1.31;3.05;-53.82;95.13;5.0;48.061;39.468945;-0.340941;69.4;NaN;;17.702;;0 / 34;6833;2021-10-20 22:34:46:683
-1.034;-5.423;-3.1931;-8.3175;1.0343;-5.0901;-5.8811;9.3594;3.3293;7.0E-4;0.4759;-2.8197;71.0;35.7;19.2;0.41;3.05;-53.82;95.13;5.0;48.061;39.468945;-0.340941;69.4;NaN;;17.702;;0 / 34;6852;2021-10-20 22:34:46:702
0.722;-5.646;-3.8629;-8.0062;-1.4461;-5.4779;-9.4968;9.2928;4.9583;-0.0902;0.6064;-3.1963;71.0;35.94;18.71;-0.41;40.33;-6.05;121.47;5.0;48.061;39.468945;-0.340941;69.4;NaN;;17.702;;0 / 34;6872;2021-10-20 22:34:46:722
2.486;-5.7611;-3.8531;-7.7189;-3.1029;-5.2002;-9.4968;9.2928;4.9583;-0.0902;0.6064;-3.1963;71.0;36.49;18.24;-1.14;40.33;-6.05;121.47;5.0;48.061;39.468945;-0.340941;69.4;NaN;;17.702;;0 / 34;6892;2021-10-20 22:34:46:742
2.97;-5.601;-3.9941;-7.2736;-3.9648;-5.2529;-11.6245;8.6734;4.8978;14.7199;3.268;0.128;71.0;37.14;18.0;-1.61;78.32;23.84;125.84;5.0;48.061;39.468945;-0.340941;69.4;NaN;;17.702;;0 / 34;6912;2021-10-20 22:34:46:762
3.5351;-5.6081;-4.437;-6.8426;-4.458;-5.4348;-12.3702;8.6142;3.5721;11.8854;5.5597;0.796;71.0;37.74;17.21;-2.21;78.32;23.84;125.84;5.0;48.061;39.468945;-0.340941;69.4;NaN;;17.702;;0 / 34;6932;2021-10-20 22:34:46:782
2.534;-5.519;-3.7931;-7.8195;-3.1843;-4.9895;-12.161;7.8247;0.6218;9.4208;6.8822;1.0055;89.0;38.04;16.91;-2.51;85.23;28.2;130.53;5.0;48.061;39.46892;-0.340949;69.3;NaN;;14.497;;0 / 34;6952;2021-10-20 22:34:46:802
1.1171;-5.402;-2.613;-8.9687;-1.1444;-3.7972;-9.4356;7.3485;-2.536;9.4208;6.8822;1.0055;89.0;38.4;16.5;-2.51;85.23;28.2;130.53;5.0;48.061;39.46892;-0.340949;69.3;NaN;;14.497;;0 / 34;6972;2021-10-20 22:34:46:822
-3.1331;-4.672;0.402;-7.355;6.3111;1.4988;-4.5843;6.0135;-6.5573;6.9376;6.6865;0.7092;89.0;38.34;16.2;-2.34;54.46;6.7;112.95;5.0;48.061;39.46892;-0.340949;69.3;NaN;;14.497;;0 / 34;6992;2021-10-20 22:34:46:842
-14.658;-1.314;5.8661;-0.6225;9.1746;3.4046;2.1701;2.8732;-11.6896;6.9183;5.6807;0.6688;89.0;38.4;16.14;-1.86;54.46;6.7;112.95;5.0;48.061;39.46892;-0.340949;69.3;NaN;;14.497;;0 / 34;7012;2021-10-20 22:34:46:862
-23.79;-0.1241;5.9021;0.0383;9.5624;2.1835;13.3349;-0.1025;-13.9163;8.0669;3.0399;1.4227;89.0;38.51;16.14;-0.79;288.98;-69.33;10.36;5.0;48.061;39.46892;-0.340949;69.3;NaN;;14.497;;0 / 34;7033;2021-10-20 22:34:46:883
-33.465;1.9481;4.193;0.5028;9.6965;1.3695;24.2903;-2.9755;-12.6175;8.2107;-0.6148;2.4115;89.0;38.29;16.44;0.24;288.98;-69.33;10.36;5.0;50.455;39.46892;-0.340949;69.3;NaN;;14.497;;0 / 34;7052;2021-10-20 22:34:46:902
-36.002;3.851;0.1121;1.2498;9.7205;-0.3974;29.7218;-4.6691;-8.6255;-4.7154;-5.4048;-2.3371;89.0;37.69;16.8;1.26;206.16;-84.34;-63.56;5.0;50.455;39.46892;-0.340949;69.3;NaN;;14.497;;0 / 34;7072;2021-10-20 22:34:46:922
-30.868;4.3181;-2.2811;1.3743;9.6822;-0.7422;24.7022;-5.3913;-4.4226;-4.5305;-4.5526;-1.458;89.0;36.71;17.76;2.64;206.16;-84.34;-63.56;5.0;50.455;39.46892;-0.340949;69.3;NaN;;14.497;;0 / 34;7092;2021-10-20 22:34:46:942
-15.398;3.375;0.272;2.2458;9.5385;0.4262;13.9663;-4.1858;-4.5214;-4.3191;-3.9875;-0.9933;89.0;36.54;18.41;3.84;148.84;-79.99;-112.1;5.0;50.455;39.46892;-0.340949;69.3;NaN;;14.497;;0 / 34;7112;2021-10-20 22:34:46:962
-9.746;3.726;2.393;3.6296;8.758;2.5187;4.0205;-3.6727;-6.842;-4.2669;-3.5475;-0.6864;89.0;35.81;18.96;4.69;148.84;-79.99;-112.1;5.0;50.455;39.46892;-0.340949;69.3;NaN;;14.497;;0 / 34;7132;2021-10-20 22:34:46:982
-7.65;4.052;3.1451;4.3958;8.2887;2.8491;-0.7568;-3.907;-8.0849;-4.2096;-3.1283;-0.4268;89.0;35.51;19.2;5.51;216.72;-63.23;-55.24;5.0;50.455;39.46892;-0.340949;69.3;NaN;;14.497;;0 / 34;7152;2021-10-20 22:34:47:002
-8.542;4.3031;-0.181;4.458;8.7053;0.7087;-0.5565;-3.7471;-5.7698;-3.9013;-2.6488;-0.2435;89.0;35.4;19.61;5.94;216.72;-63.23;-55.24;5.0;50.455;39.46892;-0.340949;69.3;NaN;;14.497;;0 / 34;7173;2021-10-20 22:34:47:023
-8.3269;4.224;-1.522;4.3718;8.6622;-1.4174;-0.3437;-3.5633;-3.0785;-3.4486;-2.1405;-0.0734;89.0;35.21;19.91;6.36;178.89;-62.59;-80.97;5.0;50.455;39.46892;-0.340949;69.3;NaN;;14.497;;0 / 34;7192;2021-10-20 22:34:47:042
-5.8691;3.726;-2.254;5.1715;7.7189;-3.146;-1.6409;-3.0494;-1.5861;-2.9792;-1.6637;0.1418;89.0;34.91;19.86;6.54;178.89;-62.59;-80.97;5.0;50.455;39.46892;-0.340949;69.3;NaN;;14.497;;0 / 34;7212;2021-10-20 22:34:47:062
-3.135;3.116;-1.929;6.5697;5.9328;-4.2234;-4.9763;-2.0623;-1.3935;-2.9792;-1.6637;0.1418;89.0;35.04;19.74;6.79;109.01;-51.9;-121.31;5.0;50.455;39.46892;-0.340949;69.3;NaN;;14.497;;0 / 34;7232;2021-10-20 22:34:47:082
-0.971;2.8361;-2.3959;7.1826;1.6185;-6.4787;-7.8218;-1.326;-0.904;-2.9792;-1.6637;0.1418;89.0;35.4;19.26;6.71;109.01;-51.9;-121.31;5.0;50.455;39.46892;-0.340949;69.3;NaN;;14.497;;0 / 34;7253;2021-10-20 22:34:47:103
1.0691;2.585;-3.099;5.794;-3.1316;-7.264;-10.5021;-0.5805;0.182;-2.9792;-1.6637;0.1418;111.0;35.21;18.71;6.66;62.01;-9.5;-132.05;5.0;50.455;39.46892;-0.340949;69.3;NaN;;14.497;;0 / 34;7272;2021-10-20 22:34:47:122
2.903;2.508;-3.298;4.9225;-5.7796;-6.2058;-11.9849;-0.1055;0.2216;-2.9792;-1.6637;0.1418;111.0;35.34;18.71;6.79;62.01;-9.5;-132.05;5.0;50.455;39.46892;-0.340949;69.3;NaN;;14.497;;0 / 34;7292;2021-10-20 22:34:47:142
1.8281;2.381;-1.8431;6.7756;-4.956;-5.0709;-11.3693;0.5296;-0.8131;-0.6207;0.9434;2.5831;111.0;35.1;18.71;6.84;62.01;-9.5;-132.05;5.0;50.455;39.46892;-0.340949;69.3;NaN;;14.497;;0 / 34;7313;2021-10-20 22:34:47:163
0.978;2.496;-1.6969;7.7812;-2.4804;-5.43;-9.9782;1.0086;-1.6816;-0.6207;0.9434;2.5831;111.0;35.04;18.9;6.84;43.06;30.35;-126.81;5.0;50.455;39.46892;-0.340949;69.3;NaN;;14.497;;0 / 34;7332;2021-10-20 22:34:47:182
-1.6301;2.889;-1.1561;8.5521;1.5802;-4.5298;-8.0702;1.4448;-2.2202;-0.029;2.5231;3.7689;111.0;34.91;18.96;7.09;43.06;30.35;-126.81;5.0;50.455;39.46892;-0.340949;69.3;NaN;;14.497;;0 / 34;7352;2021-10-20 22:34:47:202
-3.4061;3.6071;-0.4729;7.106;6.6224;-1.3551;-4.8385;1.5886;-3.2824;-0.147;2.8009;4.0087;111.0;34.91;19.14;7.26;57.65;-9.27;-117.91;5.0;46.515;39.46892;-0.340949;69.3;NaN;;14.497;;0 / 34;7372;2021-10-20 22:34:47:222
-5.6561;4.985;2.513;6.5122;6.9432;2.375;-4.8385;1.5886;-3.2824;-0.147;2.8009;4.0087;111.0;34.5;19.01;7.14;57.65;-9.27;-117.91;5.0;46.515;39.46892;-0.340949;69.3;NaN;;14.497;;0 / 34;7393;2021-10-20 22:34:47:243
-23.5481;5.069;11.252;1.6951;8.8633;3.8403;6.866;-0.1558;-13.681;-2.2664;-0.5873;1.9833;111.0;34.31;19.14;7.14;254.18;-47.32;-37.54;5.0;46.515;39.46892;-0.340949;69.3;NaN;;14.497;;0 / 34;7412;2021-10-20 22:34:47:262
-34.248;4.452;6.833;1.1923;9.6199;1.5036;22.2801;1.3131;-13.4731;-3.1691;-1.6981;-0.7895;111.0;33.79;19.56;7.56;254.18;-47.32;-37.54;5.0;46.515;39.46892;-0.340949;69.3;NaN;;14.497;;0 / 34;7432;2021-10-20 22:34:47:282
-39.3319;4.6841;-1.302;1.1588;9.7205;-0.5842;31.6861;1.1932;-2.9844;-2.7753;-1.453;-1.9155;111.0;33.11;19.91;7.86;223.07;-78.72;-38.41;5.0;46.515;39.46892;-0.340949;69.3;NaN;;14.497;;0 / 34;7452;2021-10-20 22:34:47:302
-35.713;3.8441;-3.9941;0.9912;9.7109;-0.9289;29.1353;1.4918;1.9265;-2.2484;-1.1624;-2.2146;111.0;32.59;20.4;7.99;223.07;-78.72;-38.41;5.0;46.515;39.46892;-0.340949;69.3;NaN;;14.497;;0 / 34;7472;2021-10-20 22:34:47:322
-27.3011;1.215;1.7591;0.2634;9.7492;1.0487;29.1353;1.4918;1.9265;-2.2484;-1.1624;-2.2146;111.0;31.61;20.51;8.21;245.68;-83.67;-14.1;5.0;46.515;39.46892;-0.340949;69.3;NaN;;14.497;;0 / 34;7492;2021-10-20 22:34:47:342
-10.3571;-3.6521;9.45;-2.7533;6.8187;6.4883;6.7015;7.3286;-10.5813;-2.4376;-1.0982;-2.2209;111.0;31.39;20.51;8.04;245.68;-83.67;-14.1;5.0;46.515;39.46892;-0.340949;69.3;NaN;;14.497;;0 / 34;7512;2021-10-20 22:34:47:362
-7.8169;-4.8851;6.68;-4.5059;6.8618;5.3678;0.2555;9.1984;-9.6986;-2.6165;-1.1283;-2.1688;111.0;31.2;20.34;7.99;299.17;-44.05;22.99;5.0;46.515;39.46892;-0.340949;69.3;NaN;;14.497;;0 / 34;7533;2021-10-20 22:34:47:383
-7.113;-5.019;2.156;-5.5641;7.9104;1.6472;-1.5112;9.5564;-3.7941;-2.5598;-1.0387;-2.2098;111.0;31.09;20.04;7.99;299.17;-44.05;22.99;5.0;46.515;39.46892;-0.340949;69.3;NaN;;14.497;;0 / 34;7552;2021-10-20 22:34:47:402
-6.666;-4.5281;-2.69;-5.272;7.7668;-2.8395;-1.9146;8.8197;1.2216;-2.1604;-0.7488;-2.3565;111.0;31.01;19.61;7.61;334.13;-53.74;73.51;5.0;46.515;39.46892;-0.340949;69.3;NaN;;14.497;;0 / 34;7573;2021-10-20 22:34:47:423
-5.6749;-4.4951;-3.233;-6.0142;6.4931;-4.2282;-3.2164;8.1267;2.8669;-1.7421;-0.4445;-2.5043;111.0;31.39;18.96;6.79;334.13;-53.74;73.51;5.0;46.515;39.46892;-0.340949;69.3;NaN;;14.497;;0 / 34;7592;2021-10-20 22:34:47:442
-4.191;-4.6811;-3.078;-6.3686;6.1292;-4.2521;-3.2164;8.1267;2.8669;-2.1491;-0.4265;-2.7537;77.0;32.04;18.0;5.81;21.31;-38.67;123.73;5.0;46.515;39.46892;-0.340949;69.3;NaN;;14.497;;0 / 34;7613;2021-10-20 22:34:47:463
-0.2629;-5.909;-3.384;-8.4324;-0.9002;-4.9273;-8.188;8.1852;3.6009;-4.1379;-0.8646;-3.1162;77.0;32.7;17.1;4.74;21.31;-38.67;123.73;5.0;46.515;39.46892;-0.340949;69.3;NaN;;14.497;;0 / 34;7633;2021-10-20 22:34:47:483
2.094;-6.2351;-4.014;-7.7907;-2.9353;-5.1811;-10.8412;8.0879;4.6385;-7.8413;-1.8205;-3.2011;77.0;33.49;16.01;3.36;46.85;5.27;120.3;5.0;46.515;39.46892;-0.340949;69.3;NaN;;14.497;;0 / 34;7652;2021-10-20 22:34:47:502
3.083;-5.991;-4.868;-6.9528;-3.7158;-5.8371;-12.4695;7.0364;6.8757;-12.3266;-4.2818;-2.6009;77.0;34.01;15.24;2.16;46.85;5.27;120.3;5.0;46.515;39.46892;-0.340949;69.3;NaN;;14.497;;0 / 34;7672;2021-10-20 22:34:47:522
3.671;-5.6561;-5.522;-6.3159;-4.0989;-6.2872;-12.4695;7.0364;6.8757;-12.893;-6.4769;-3.1672;77.0;34.44;14.51;1.01;82.02;24.7;134.87;5.0;53.816;39.46892;-0.340949;69.3;NaN;;14.497;;0 / 34;7692;2021-10-20 22:34:47:542
0.9881;-4.7869;-3.8959;-7.7237;-0.9816;-5.9663;-10.9852;3.069;9.5187;-11.5679;-6.9884;-4.0334;77.0;34.91;14.1;-0.11;82.02;24.7;134.87;5.0;53.816;39.46892;-0.340949;69.3;NaN;;14.497;;0 / 34;7713;2021-10-20 22:34:47:563
-1.359;-4.492;-2.786;-7.9392;3.2274;-4.7645;-7.4853;1.1017;8.1226;-10.0035;-6.6865;-4.2978;77.0;35.1;13.74;-0.84;63.18;5.74;127.69;5.0;53.816;39.46892;-0.340949;69.3;NaN;;14.497;;0 / 34;7732;2021-10-20 22:34:47:582
-4.375;-3.71;-1.79;-5.6072;7.6854;-2.3798;-3.4626;-1.0341;7.4209;-8.7825;-6.1322;-4.0738;77.0;35.29;13.5;-1.44;63.18;5.74;127.69;5.0;53.816;39.46892;-0.340949;69.3;NaN;;14.497;;0 / 34;7752;2021-10-20 22:34:47:602
-7.042;-2.3051;0.258;-2.5379;9.4284;0.9146;0.8045;-3.7952;5.0615;-7.9658;-5.5268;-3.4577;77.0;34.99;13.44;-1.61;25.38;-51.6;113.0;5.0;53.816;39.46892;-0.340949;69.3;NaN;;14.497;;0 / 34;7772;2021-10-20 22:34:47:622
-18.3709;1.091;7.137;0.6177;9.1363;3.5099;7.3838;-6.7178;0.0325;-7.5943;-4.7502;-1.4094;77.0;34.99;13.26;-1.31;25.38;-51.6;113.0;5.0;53.816;39.46892;-0.340949;69.3;NaN;;14.497;;0 / 34;7792;2021-10-20 22:34:47:642
-28.0819;3.432;7.7291;1.2354;9.4188;2.4517;17.1379;-9.3628;-4.3389;-7.4812;-3.955;2.237;77.0;34.8;13.31;-0.54;269.98;-68.69;-9.98;5.0;53.816;39.46892;-0.340949;69.3;NaN;;14.497;;0 / 34;7812;2021-10-20 22:34:47:662
-33.645;5.598;4.634;1.6281;9.6007;1.1588;26.4459;-11.8788;-2.0304;-7.4812;-3.955;2.237;77.0;34.69;13.56;0.06;269.98;-68.69;-9.98;5.0;53.816;39.46892;-0.340949;69.3;NaN;;14.497;;0 / 34;7832;2021-10-20 22:34:47:682
-32.1529;6.47;1.7441;2.0159;9.5864;0.4357;26.6687;-12.4883;2.3865;-7.4812;-3.955;2.237;77.0;34.2;13.86;1.09;217.28;-78.24;-54.56;5.0;53.816;39.46892;-0.340949;69.3;NaN;;14.497;;0 / 34;7852;2021-10-20 22:34:47:702
-26.856;6.515;0.9161;2.3415;9.5146;0.3735;19.228;-11.7594;3.8414;-7.4812;-3.9549;2.237;77.0;33.9;14.16;2.21;217.28;-78.24;-54.56;5.0;53.816;39.46892;-0.340949;69.3;NaN;;14.497;;0 / 34;7872;2021-10-20 22:34:47:722
-18.5621;5.6561;1.938;2.9975;9.2751;1.0678;19.228;-11.7594;3.8414;6.4908;3.454;0.8007;77.0;33.71;14.4;3.24;184.61;-76.01;-80.94;5.0;53.816;39.46892;-0.340949;69.3;NaN;;14.497;;0 / 34;7892;2021-10-20 22:34:47:742
-9.1789;5.57;1.5791;5.2289;8.1834;1.3599;3.3586;-9.4747;3.2295;6.4908;3.454;0.8007;77.0;33.41;14.64;4.44;184.61;-76.01;-80.94;5.0;53.816;39.46892;-0.340949;69.3;NaN;;14.497;;0 / 34;7913;2021-10-20 22:34:47:763
-7.317;5.6081;0.371;5.9759;7.7716;0.2346;-0.0141;-8.8914;4.2817;6.4908;3.454;0.8007;77.0;33.49;14.51;5.29;190.11;-56.57;-75.42;5.0;53.816;39.46892;-0.340949;69.3;NaN;;14.497;;0 / 34;7932;2021-10-20 22:34:47:782
-6.931;5.1671;-0.593;5.8658;7.8147;-0.8188;-1.011;-7.8095;5.5449;6.4908;3.454;0.8007;77.0;33.24;14.21;6.11;190.11;-56.57;-75.42;5.0;53.816;39.46892;-0.340949;69.3;NaN;;14.497;;0 / 34;7952;2021-10-20 22:34:47:802
-6.063;4.586;-1.074;5.9089;7.6998;-1.3982;-2.4061;-6.3414;6.0107;6.4908;3.454;0.8007;77.0;33.19;13.91;6.84;145.65;-52.84;-97.95;5.0;53.816;39.46892;-0.340949;69.3;NaN;;14.497;;0 / 34;7972;2021-10-20 22:34:47:822
-2.1559;2.96;-0.916;6.6319;6.9384;-2.0207;-4.8051;-4.7025;5.8304;6.4908;3.454;0.8007;77.0;33.0;13.44;7.61;145.65;-52.84;-97.95;5.0;53.816;39.46892;-0.340949;69.3;NaN;;14.497;;0 / 34;7992;2021-10-20 22:34:47:842
-0.3229;2.417;-0.7511;9.3709;0.1676;-2.8826;-7.5381;-3.1785;5.3499;3.9936;1.6809;1.8028;77.0;33.24;12.96;8.04;123.64;-45.02;-106.95;5.0;53.816;39.46892;-0.340949;69.3;NaN;;14.497;;0 / 34;8012;2021-10-20 22:34:47:862
1.656;1.895;-0.8659;7.4364;-5.6551;-2.9832;-9.8572;-1.8298;5.0401;3.7258;1.3622;2.2503;77.0;33.3;12.36;8.21;123.64;-45.02;-106.95;5.0;47.276;39.46892;-0.340949;69.3;NaN;;14.497;;0 / 34;8032;2021-10-20 22:34:47:882
2.211;1.646;-1.2319;5.2002;-6.7277;-4.889;-11.0366;-0.6559;5.2596;3.7414;1.1855;2.8692;77.0;33.41;11.81;8.89;47.89;46.02;-125.44;5.0;47.276;39.46892;-0.340949;69.3;NaN;;14.497;;0 / 34;8052;2021-10-20 22:34:47:902
2.0081;1.68;-1.677;5.2625;-5.679;-6.019;-10.8494;0.3365;5.2773;3.8852;1.2372;3.5156;77.0;33.3;11.34;9.49;47.89;46.02;-125.44;5.0;47.276;39.46892;-0.340949;69.3;NaN;;14.497;;0 / 34;8072;2021-10-20 22:34:47:922
0.983;1.316;-2.348;4.64;-3.0598;-8.0828;-10.2558;1.4445;5.5137;4.0976;1.5213;4.206;77.0;33.41;11.04;10.26;66.06;28.55;-145.69;5.0;47.276;39.46892;-0.340949;69.3;NaN;;14.497;;0 / 34;8092;2021-10-20 22:34:47:942
0.1841;1.5791;-1.4621;7.6231;0.1245;-6.1723;-9.174;2.7313;4.6018;4.1689;1.9064;5.0941;77.0;33.6;11.16;11.21;66.06;28.55;-145.69;5.0;47.276;39.46892;-0.340949;69.3;NaN;;14.497;;0 / 34;8112;2021-10-20 22:34:47:962
-1.275;1.9361;-0.72;7.0246;6.8283;-0.5124;-7.1562;3.3643;2.7468;3.8856;2.1787;5.7254;77.0;34.01;11.46;11.94;70.7;-0.73;-129.0;5.0;47.276;39.46892;-0.340949;69.3;NaN;;14.497;;0 / 34;8132;2021-10-20 22:34:47:982
-5.9621;5.409;2.4581;6.6272;6.8809;2.2218;-3.9738;2.5916;0.3424;3.2247;1.7936;5.2284;77.0;34.5;12.11;12.71;70.7;-0.73;-129.0;5.0;47.276;39.46892;-0.340949;69.3;NaN;;14.497;;0 / 34;8152;2021-10-20 22:34:48:002
-10.8281;7.4081;5.4671;4.6017;7.7955;3.7781;0.9177;0.1767;-2.8936;1.6013;0.4231;3.1742;77.0;34.91;12.96;13.26;200.74;-46.84;-59.17;5.0;47.276;39.46892;-0.340949;69.3;NaN;;14.497;;0 / 34;8172;2021-10-20 22:34:48:022
-17.5901;9.0;7.286;4.6017;7.7955;3.7781;0.9177;0.1767;-2.8936;0.0205;-0.1353;0.6116;77.0;35.29;14.21;13.74;200.74;-46.84;-59.17;5.0;47.276;39.46892;-0.340949;69.3;NaN;;14.497;;0 / 34;8192;2021-10-20 22:34:48:042
-28.424;10.065;5.2181;3.1316;9.165;1.5371;18.2918;-3.4135;-4.9975;0.0205;-0.1353;0.6116;77.0;35.89;15.84;13.61;202.03;-60.67;-53.76;5.0;47.276;39.46892;-0.340949;69.3;NaN;;14.497;;0 / 34;8212;2021-10-20 22:34:48:062
-31.926;9.17;2.745;2.6624;9.4092;0.7661;24.3768;-3.2161;-2.3711;-0.8339;0.2043;-1.2413;77.0;36.41;17.7;13.14;202.03;-60.67;-53.76;5.0;47.276;39.46892;-0.340949;69.3;NaN;;14.497;;0 / 34;8232;2021-10-20 22:34:48:082
-29.6059;7.721;2.8691;2.4325;9.4523;1.0008;22.7716;-1.7892;-1.466;-0.921;0.2852;-1.4393;77.0;36.6;19.31;12.24;177.67;-73.59;-73.95;5.0;47.276;39.46892;-0.340949;69.3;NaN;;14.497;;0 / 34;8253;2021-10-20 22:34:48:103
-24.8021;5.589;4.121;2.0399;9.4427;1.6855;22.7716;-1.7892;-1.466;-1.0196;0.2676;-1.4691;29.0;36.79;20.34;10.56;177.67;-73.59;-73.95;5.0;47.276;39.46892;-0.340949;69.3;NaN;;14.497;;0 / 34;8272;2021-10-20 22:34:48:122
-12.494;1.0811;4.191;0.9433;9.2895;3.0023;8.7499;3.2111;-3.2697;-0.9666;0.1587;-1.4667;29.0;37.01;20.94;8.81;237.95;-72.31;-28.09;5.0;47.276;39.46892;-0.340949;69.3;NaN;;14.497;;0 / 34;8292;2021-10-20 22:34:48:142
-7.968;-0.56;2.8121;0.0;9.1937;3.4189;2.4272;5.0633;-2.3126;-0.8662;0.0701;-1.4748;29.0;37.14;20.76;6.79;237.95;-72.31;-28.09;5.0;47.276;39.46892;-0.340949;69.3;NaN;;14.497;;0 / 34;8312;2021-10-20 22:34:48:162
-6.0671;-1.665;1.2251;-3.6009;9.1075;0.4645;-1.3209;6.3164;-0.5433;-0.686;0.0368;-1.5547;29.0;37.09;20.21;4.56;298.76;-70.82;28.58;5.0;47.276;39.46892;-0.340949;69.3;NaN;;14.497;;0 / 34;8332;2021-10-20 22:34:48:182
-4.7411;-2.5511;-0.639;-4.8171;8.3845;-1.6472;-3.4278;7.3039;1.8941;-0.4309;0.1007;-1.6919;29.0;37.39;19.26;2.29;298.76;-70.82;28.58;5.0;49.639;39.46892;-0.340949;69.3;NaN;;14.497;;0 / 34;8352;2021-10-20 22:34:48:202
-3.865;-3.465;-2.704;-5.8466;6.2249;-4.8219;-4.646;7.8927;4.0472;-0.2127;0.1931;-1.8804;29.0;37.31;17.94;0.36;16.95;-58.73;108.88;5.0;49.639;39.46892;-0.340949;69.3;NaN;;14.497;;0 / 34;8372;2021-10-20 22:34:48:222
-1.6391;-4.375;-4.377;-6.79;2.1165;-6.7516;-5.8672;8.2505;5.4963;0.0257;0.272;-2.1945;29.0;37.5;16.2;-1.61;16.95;-58.73;108.88;5.0;49.639;39.46892;-0.340949;69.3;NaN;;14.497;;0 / 34;8392;2021-10-20 22:34:48:242
-0.2771;-4.8319;-4.468;-7.2401;0.0622;-6.6128;-8.0617;8.2977;5.8771;0.2963;0.4883;-2.7868;29.0;37.8;14.46;-3.11;56.66;-12.46;134.84;5.0;49.639;39.46892;-0.340949;69.3;NaN;;14.497;;0 / 34;8412;2021-10-20 22:34:48:262
1.074;-4.988;-4.626;-6.7612;-2.5426;-6.6319;-10.6125;8.1002;5.5989;0.2962;0.4883;-2.7868;29.0;38.1;13.14;-4.14;56.66;-12.46;134.84;5.0;49.639;39.46892;-0.340949;69.3;NaN;;14.497;;0 / 34;8432;2021-10-20 22:34:48:282
3.248;-5.112;-6.137;-6.0908;-3.5817;-6.8043;-10.6125;8.1002;5.5989;0.2962;0.4883;-2.7868;29.0;38.04;11.94;-4.99;79.74;15.03;134.45;5.0;49.639;39.46892;-0.340949;69.3;NaN;;14.497;;0 / 34;8452;2021-10-20 22:34:48:302
2.8601;-4.839;-5.809;-6.8331;-2.0734;-6.7181;-12.0825;8.1559;3.6887;0.2962;0.4883;-2.7868;29.0;37.8;11.4;-5.64;79.74;15.03;134.45;5.0;49.639;39.46892;-0.340949;69.3;NaN;;14.497;;0 / 34;8472;2021-10-20 22:34:48:322
-1.6939;-3.8599;-1.8431;-8.3222;2.399;-4.5969;-8.0669;7.3688;-0.8412;0.2962;0.4881;-2.7868;29.0;38.21;10.74;-5.94;79.18;12.21;134.51;5.0;49.639;39.46892;-0.340949;69.3;NaN;;14.497;;0 / 34;8492;2021-10-20 22:34:48:342
-4.7321;-2.565;-0.849;-1.2785;9.7205;0.0766;-3.6362;5.3389;-4.263;7.9151;5.3731;1.563;29.0;38.1;10.31;-5.81;79.18;12.21;134.51;5.0;49.639;39.46892;-0.340949;69.3;NaN;;14.497;;0 / 34;8512;2021-10-20 22:34:48:362
-8.5691;0.117;0.686;0.4166;9.7492;1.0056;0.5652;2.1182;-6.6348;7.9151;5.3731;1.563;29.0;38.34;9.9;-5.29;3.97;-82.49;86.57;5.0;49.639;39.46892;-0.340949;69.3;NaN;;14.497;;0 / 34;8532;2021-10-20 22:34:48:382
-17.234;3.588;4.854;1.5945;9.3757;2.4038;7.2561;-1.2499;-10.3661;7.9151;5.3731;1.563;29.0;38.4;9.36;-4.14;3.97;-82.49;86.57;5.0;49.639;39.46892;-0.340949;69.3;NaN;;14.497;;0 / 34;8552;2021-10-20 22:34:48:402
-22.586;6.065;5.079;2.4134;9.2368;2.2314;7.2561;-1.2499;-10.3661;5.0992;-1.801;0.4752;29.0;38.4;9.11;-3.19;245.71;-72.9;-33.56;5.0;49.639;39.46892;-0.340949;69.3;NaN;;14.497;;0 / 34;8572;2021-10-20 22:34:48:422
-28.2349;8.6051;3.288;2.8539;9.323;1.0726;19.203;-7.3614;-9.5799;-0.7283;-3.4288;-0.7264;29.0;38.21;9.11;-1.91;245.71;-72.9;-33.56;5.0;49.639;39.46892;-0.340949;69.3;NaN;;14.497;;0 / 34;8592;2021-10-20 22:34:48:442
-27.2771;8.466;2.8691;2.9209;9.3134;0.9529;20.0768;-7.8573;-8.5898;-2.8458;-3.2582;-0.5387;0.0;38.1;9.3;-0.54;205.0;-71.89;-69.4;5.0;49.639;39.46892;-0.340949;69.3;NaN;;14.497;;0 / 34;8612;2021-10-20 22:34:48:462
-20.963;7.8461;1.0571;3.5291;9.1411;0.3926;15.2478;-6.9987;-6.6265;-3.2785;-2.9348;-0.2306;0.0;37.8;9.36;1.01;205.0;-71.89;-69.4;5.0;49.639;39.46892;-0.340949;69.3;NaN;;14.497;;0 / 34;8632;2021-10-20 22:34:48:482
-15.6731;7.259;-0.16;4.276;8.825;-0.1389;7.8612;-5.9508;-4.3408;-3.152;-2.5574;0.0403;0.0;37.44;9.36;2.34;183.85;-68.77;-83.65;5.0;49.639;39.46892;-0.340949;69.3;NaN;;14.497;;0 / 34;8652;2021-10-20 22:34:48:502
-11.077;6.999;0.131;5.4396;8.1547;0.2442;7.8612;-5.9508;-4.3408;-3.0889;-2.1823;0.2421;0.0;37.14;9.36;3.49;183.85;-68.77;-83.65;5.0;48.981;39.46892;-0.340949;69.3;NaN;;14.497;;0 / 34;8672;2021-10-20 22:34:48:522
-7.417;6.405;1.1891;6.4021;7.3263;1.245;-1.1901;-4.7836;-4.8676;-3.1415;-1.8253;0.3736;0.0;36.71;9.6;4.39;187.17;-49.36;-79.63;5.0;48.981;39.46892;-0.340949;69.3;NaN;;14.497;;0 / 34;8692;2021-10-20 22:34:48:542
-6.898;5.8931;0.1001;6.3398;7.446;0.7326;-1.809;-3.8597;-3.7836;-3.1415;-1.8253;0.3736;0.0;36.11;9.96;5.04;187.17;-49.36;-79.63;5.0;48.981;39.46892;-0.340949;69.3;NaN;;14.497;;0 / 34;8712;2021-10-20 22:34:48:562
-5.6651;5.213;-0.9041;6.7325;6.9767;-1.4844;-3.1641;-2.8031;-1.9313;-2.7908;-1.0647;0.5782;0.0;35.7;9.96;5.76;148.84;-47.46;-98.68;5.0;48.981;39.46892;-0.340949;69.3;NaN;;14.497;;0 / 34;8732;2021-10-20 22:34:48:582
-3.138;4.107;-0.282;7.5513;6.2249;-0.6273;-4.7574;-1.5144;-1.6171;-2.5543;-0.7539;0.74;0.0;35.4;10.14;6.24;148.84;-47.46;-98.68;5.0;48.981;39.46892;-0.340949;69.3;NaN;;14.497;;0 / 34;8752;2021-10-20 22:34:48:602
-2.07;4.011;-0.0161;9.3996;2.8012;-0.2251;-6.6652;-0.9428;-2.225;-2.2762;-0.487;1.0603;0.0;35.4;10.01;6.54;144.9;-39.4;-94.75;5.0;48.981;39.46892;-0.340949;69.3;NaN;;14.497;;0 / 34;8773;2021-10-20 22:34:48:623
1.352;3.506;-1.218;9.4332;-1.4317;-2.2697;-8.8738;-0.291;-1.4549;-1.9598;-0.2322;1.5676;0.0;35.51;9.9;6.79;144.9;-39.4;-94.75;5.0;48.981;39.46892;-0.340949;69.3;NaN;;14.497;;0 / 34;8793;2021-10-20 22:34:48:643
2.597;3.339;-1.749;6.9767;-5.7988;-3.7302;-10.8216;0.5461;-0.4621;-1.6664;0.0139;2.1963;0.0;35.29;10.01;7.09;42.24;23.33;-111.16;5.0;48.981;39.46892;-0.340949;69.3;NaN;;14.497;;0 / 34;8812;2021-10-20 22:34:48:662
3.08;3.083;-1.517;6.4739;-6.6224;-3.2226;-11.5518;1.3301;-0.1908;-1.2974;0.3223;2.8317;0.0;35.04;10.01;7.39;42.24;23.33;-111.16;5.0;48.981;39.46892;-0.340949;69.3;NaN;;14.497;;0 / 34;8832;2021-10-20 22:34:48:682
1.464;2.8721;-0.371;7.7764;-5.7269;-1.7095;-10.7166;2.2397;-1.0858;-0.8746;0.7238;3.4642;0.0;34.74;10.14;7.61;41.06;42.48;-116.46;5.0;48.981;39.46892;-0.340949;69.3;NaN;;14.497;;0 / 34;8852;2021-10-20 22:34:48:702
-0.021;3.083;0.2891;8.825;3.6344;2.2697;-8.5916;2.7675;-2.0194;-0.6401;1.0891;4.1253;0.0;34.91;9.9;7.61;41.06;42.48;-116.46;5.0;48.981;39.46892;-0.340949;69.3;NaN;;14.497;;0 / 34;8872;2021-10-20 22:34:48:722
-2.424;3.578;1.481;7.5561;5.3199;3.2801;-4.9699;3.0467;-3.3882;-0.8433;1.0203;4.3391;0.0;34.91;9.84;7.74;193.61;-21.74;-75.58;5.0;48.981;39.46892;-0.340949;69.3;NaN;;14.497;;0 / 34;8892;2021-10-20 22:34:48:742
-4.9181;5.735;2.7641;7.2401;5.9233;2.9497;-4.9699;3.0467;-3.3882;-1.1246;0.7061;3.989;0.0;34.8;9.6;7.86;193.61;-21.74;-75.58;5.0;48.981;39.46892;-0.340949;69.3;NaN;;14.497;;0 / 34;8912;2021-10-20 22:34:48:762
-6.7781;8.064;6.5531;5.4109;6.2153;5.3247;-0.4557;0.1657;-6.5034;-1.7728;0.0714;3.1607;0.0;34.5;9.54;8.29;231.0;-32.79;-57.26;5.0;48.981;39.46892;-0.340949;69.3;NaN;;14.497;;0 / 34;8932;2021-10-20 22:34:48:782
-13.866;8.669;8.988;3.9456;8.2456;3.5578;6.5957;-0.9324;-10.3116;-2.6097;-0.4851;1.4167;0.0;34.31;9.36;8.59;231.0;-32.79;-57.26;5.0;48.981;39.46892;-0.340949;69.3;NaN;;14.497;;0 / 34;8952;2021-10-20 22:34:48:802
-22.806;8.8301;5.526;3.0742;9.2608;0.9864;18.331;-1.1251;-5.5305;-2.6936;-0.2815;-0.5236;0.0;34.01;9.54;9.19;217.61;-57.21;-47.96;5.0;48.981;39.46892;-0.340949;69.3;NaN;;14.497;;0 / 34;8972;2021-10-20 22:34:48:822
-32.424;8.655;-2.661;2.5187;9.4475;-0.7805;25.7488;-1.5914;0.6855;-2.316;0.0688;-1.6446;0.0;33.79;9.96;9.71;217.61;-57.21;-47.96;5.0;48.981;39.46892;-0.340949;69.3;NaN;;14.497;;0 / 34;8993;2021-10-20 22:34:48:843
-28.8;7.539;-1.7089;2.4612;9.481;-0.4693;24.5445;-0.8706;2.128;-1.9654;0.2732;-2.0695;0.0;33.3;10.31;9.96;142.1;-74.41;-107.22;5.0;49.25;39.46892;-0.340949;69.3;NaN;;14.497;;0 / 34;9012;2021-10-20 22:34:48:862
-21.683;4.641;1.1441;1.9537;9.5912;0.6321;17.4266;1.1648;-0.1798;-1.8128;0.3616;-2.1538;0.0;32.7;11.1;10.01;142.1;-74.41;-107.22;5.0;49.25;39.46892;-0.340949;69.3;NaN;;14.497;;0 / 34;9032;2021-10-20 22:34:48:882
-16.815;2.534;2.238;1.3455;9.6199;1.3695;8.9612;4.5049;-2.1709;-1.8128;0.3616;-2.1538;0.0;32.29;11.7;9.96;180.64;-77.92;-72.07;5.0;49.25;39.46892;-0.340949;69.3;NaN;;14.497;;0 / 34;9052;2021-10-20 22:34:48:902
-9.435;-0.356;1.263;-0.2155;9.7013;1.4126;4.0098;6.0994;-1.5699;-1.8128;0.3616;-2.1538;0.0;32.29;12.36;9.71;180.64;-77.92;-72.07;5.0;49.25;39.46892;-0.340949;69.3;NaN;;14.497;;0 / 34;9072;2021-10-20 22:34:48:922
-7.719;-1.1269;0.354;-1.2306;9.7109;0.6321;0.8337;6.8657;-0.3965;-1.8128;0.3616;-2.1538;0.0;32.1;13.14;9.11;266.3;-81.62;8.67;5.0;49.25;39.46892;-0.340949;69.3;NaN;;14.497;;0 / 34;9092;2021-10-20 22:34:48:942
-6.218;-2.345;-1.259;-4.1228;8.4084;-2.9066;-1.252;7.5769;1.1223;-1.8128;0.3616;-2.1538;0.0;31.99;13.8;8.64;266.3;-81.62;8.67;5.0;49.25;39.46892;-0.340949;69.3;NaN;;14.497;;0 / 34;9112;2021-10-20 22:34:48:962
-5.172;-3.286;-2.6231;-5.0613;7.3023;-4.1563;-2.8414;8.4813;2.8528;-1.8128;0.3616;-2.1538;0.0;32.04;14.4;7.56;19.51;-59.04;125.18;5.0;49.25;39.46892;-0.340949;69.3;NaN;;14.497;;0 / 34;9133;2021-10-20 22:34:48:983
-3.576;-4.1359;-3.525;-6.4356;5.0326;-5.4253;-5.1533;9.1639;3.9884;-1.8128;0.3616;-2.1538;0.0;32.21;14.94;6.41;19.51;-59.04;125.18;5.0;49.25;39.46892;-0.340949;69.3;NaN;;14.497;;0 / 34;9152;2021-10-20 22:34:49:002
-0.832;-5.412;-3.4489;-8.2456;0.9146;-5.2337;-7.1055;9.5406;4.1418;-1.1324;0.8268;-3.0606;0.0;32.59;15.06;5.29;32.42;-30.87;130.13;5.0;49.25;39.46892;-0.340949;69.3;NaN;;14.497;;0 / 34;9172;2021-10-20 22:34:49:022
0.368;-5.6651;-3.834;-8.0254;-0.7853;-5.5785;-8.8793;9.1692;3.8937;-3.1298;1.192;-4.0074;0.0;33.11;15.06;4.39;32.42;-30.87;130.13;5.0;49.25;39.46892;-0.340949;69.3;NaN;;14.497;;0 / 34;9192;2021-10-20 22:34:49:042
1.704;-5.828;-5.115;-7.0246;-2.2697;-6.4596;-10.1067;9.8017;3.6011;14.9168;1.8074;2.1486;0.0;33.41;15.36;3.41;52.32;4.59;124.8;5.0;49.25;39.46892;-0.340949;69.3;NaN;;14.497;;0 / 34;9212;2021-10-20 22:34:49:062
2.13;-5.639;-5.6651;-6.7086;-2.4804;-6.7086;-10.7367;9.5766;3.0147;11.9606;3.7368;2.1797;0.0;33.71;15.24;2.59;52.32;4.59;124.8;5.0;49.25;39.46892;-0.340949;69.3;NaN;;14.497;;0 / 34;9232;2021-10-20 22:34:49:082
-0.428;-4.3181;-3.1571;-7.3263;-1.8818;-6.2393;-9.4255;8.577;0.103;11.9606;3.7368;2.1797;0.0;34.14;14.81;1.74;70.36;14.65;135.0;5.0;49.25;39.46892;-0.340949;69.3;NaN;;14.497;;0 / 34;9252;2021-10-20 22:34:49:102
-2.7641;-2.872;-1.5941;-5.8179;7.3023;-3.0071;-5.9357;6.6684;-2.9676;11.9606;3.7368;2.1797;0.0;34.31;14.64;0.96;70.36;14.65;135.0;5.0;49.25;39.46892;-0.340949;69.3;NaN;;14.497;;0 / 34;9272;2021-10-20 22:34:49:122
-4.734;0.105;0.588;2.308;9.0261;3.0694;-2.5381;2.6341;-6.7456;7.7352;4.3821;1.4495;0.0;34.61;14.21;0.84;24.81;-48.11;117.33;5.0;49.25;39.46892;-0.340949;69.3;NaN;;14.497;;0 / 34;9293;2021-10-20 22:34:49:143
-16.9511;4.758;8.346;2.399;8.4611;4.3431;3.7207;-1.6357;-12.4225;7.6329;2.7793;1.2836;0.0;34.69;13.56;0.79;24.81;-48.11;117.33;5.0;51.94;39.46892;-0.340949;69.3;NaN;;14.497;;0 / 34;9312;2021-10-20 22:34:49:162
-23.9381;6.9431;8.4611;2.5283;8.8729;3.3279;14.2509;-5.2778;-15.9331;6.8536;-1.6133;0.7869;0.0;34.99;13.01;1.01;253.77;-59.61;-28.91;5.0;51.94;39.46892;-0.340949;69.3;NaN;;14.497;;0 / 34;9332;2021-10-20 22:34:49:182
-26.65;8.619;6.419;3.0167;9.1363;1.9106;14.2509;-5.2778;-15.9331;-5.2855;-3.8158;-2.6284;0.0;34.69;12.84;1.44;253.77;-59.61;-28.91;5.0;51.94;39.46892;-0.340949;69.3;NaN;;14.497;;0 / 34;9352;2021-10-20 22:34:49:202
-28.6631;9.672;-0.727;3.1412;9.2895;-0.316;21.5403;-8.6728;-6.4149;-4.9219;-3.1705;-1.3716;0.0;34.39;12.54;1.86;179.29;-71.21;-87.22;5.0;51.94;39.46892;-0.340949;69.3;NaN;;14.497;;0 / 34;9372;2021-10-20 22:34:49:222
-24.312;8.985;-1.4689;3.4524;9.1602;-0.5746;17.2043;-7.5115;-3.9484;-4.4797;-2.7335;-0.7737;0.0;33.71;12.54;2.29;179.29;-71.21;-87.22;5.0;51.94;39.46892;-0.340949;69.3;NaN;;14.497;;0 / 34;9392;2021-10-20 22:34:49:242
-14.591;7.458;-0.861;4.6448;8.6287;-0.4453;9.1142;-5.7996;-3.7516;-4.0795;-2.3858;-0.4089;0.0;32.94;12.66;2.94;162.57;-65.68;-97.98;5.0;51.94;39.46892;-0.340949;69.3;NaN;;14.497;;0 / 34;9412;2021-10-20 22:34:49:262
-10.029;7.221;-0.136;5.9472;7.8003;-0.0575;2.176;-4.9325;-4.127;-3.7254;-2.0838;-0.1156;0.0;32.4;12.54;3.24;162.57;-65.68;-97.98;5.0;51.94;39.46892;-0.340949;69.3;NaN;;14.497;;0 / 34;9432;2021-10-20 22:34:49:282
-7.575;7.085;0.035;6.7947;7.0725;0.0144;2.176;-4.9325;-4.127;-3.7254;-2.0838;-0.1156;0.0;31.8;12.11;3.36;168.77;-46.15;-89.88;5.0;51.94;39.46892;-0.340949;69.3;NaN;;14.497;;0 / 34;9452;2021-10-20 22:34:49:302
-6.568;6.134;-1.443;6.5793;7.082;-1.6568;-2.0022;-3.7143;-2.5366;-2.7598;-1.4961;0.2076;0.0;31.39;11.81;3.36;168.77;-46.15;-89.88;5.0;51.94;39.46892;-0.340949;69.3;NaN;;14.497;;0 / 34;9472;2021-10-20 22:34:49:322
-5.802;5.469;-1.984;6.5266;6.8809;-2.4995;-2.5299;-2.8015;-1.4419;-2.0787;-1.1228;0.3887;0.0;30.79;11.76;3.36;140.86;-46.23;-104.13;5.0;51.94;39.46892;-0.340949;69.3;NaN;;14.497;;0 / 34;9493;2021-10-20 22:34:49:343
-3.868;3.813;-1.637;6.5314;6.7373;-2.8491;-3.9022;-1.3658;-0.7988;-1.5438;-0.7842;0.5892;0.0;30.6;11.16;3.54;140.86;-46.23;-104.13;5.0;51.94;39.46892;-0.340949;69.3;NaN;;14.497;;0 / 34;9512;2021-10-20 22:34:49:362
-2.7979;3.3941;-1.326;7.4268;5.7509;-2.8299;-5.7257;-0.0098;-1.3283;-1.2885;-0.5276;0.8731;0.0;30.41;10.74;3.79;122.04;-43.39;-113.57;5.0;51.94;39.46892;-0.340949;69.3;NaN;;14.497;;0 / 34;9532;2021-10-20 22:34:49:382
1.575;2.192;-1.311;6.7325;-5.77;-4.1851;-8.0316;1.2156;-1.4541;-1.1459;-0.2881;1.2887;0.0;30.49;10.01;3.79;122.04;-43.39;-113.57;5.0;51.94;39.46892;-0.340949;69.3;NaN;;14.497;;0 / 34;9552;2021-10-20 22:34:49:402
3.015;2.015;-1.5701;4.7597;-7.6375;-3.9025;-10.4206;1.9203;-1.1488;-0.9537;0.0069;1.8333;0.0;30.41;9.36;4.01;42.45;36.05;-121.87;5.0;51.94;39.46892;-0.340949;69.3;NaN;;14.497;;0 / 34;9572;2021-10-20 22:34:49:422
3.437;1.776;-1.728;4.0079;-7.92;-4.1707;-11.6772;2.6134;-0.865;-0.62;0.4124;2.3955;0.0;30.54;9.0;4.44;42.45;36.05;-121.87;5.0;51.94;39.46892;-0.340949;69.3;NaN;;14.497;;0 / 34;9592;2021-10-20 22:34:49:442
2.7161;1.5311;-1.991;4.0223;-6.924;-5.6599;-11.1687;3.428;-0.8145;-0.1651;0.9593;2.9459;0.0;30.54;8.7;4.91;52.59;53.86;-136.14;5.0;51.94;39.46892;-0.340949;69.3;NaN;;14.497;;0 / 34;9612;2021-10-20 22:34:49:462
1.16;1.797;-1.563;8.6622;1.0199;-4.4772;-8.9101;3.8403;-1.3222;-0.1651;0.9593;2.9459;0.0;30.41;8.46;5.34;52.59;53.86;-136.14;5.0;51.94;39.46892;-0.340949;69.3;NaN;;14.497;;0 / 34;9632;2021-10-20 22:34:49:482
-0.6551;2.537;-1.2041;7.3789;6.3542;-1.1732;-5.8881;3.4522;-2.1757;-0.1651;0.9593;2.9459;0.0;30.41;8.46;5.76;74.02;-5.97;-117.33;5.0;50.51;39.46892;-0.340949;69.3;NaN;;14.497;;0 / 34;9652;2021-10-20 22:34:49:502
-3.9439;6.383;1.419;8.0206;5.4923;1.312;-2.5439;1.9868;-3.7418;-0.1651;0.9593;2.9459;0.0;30.49;8.64;5.76;74.02;-5.97;-117.33;5.0;50.51;39.46892;-0.340949;69.3;NaN;;14.497;;0 / 34;9672;2021-10-20 22:34:49:522
-9.129;10.05;8.181;5.387;6.359;5.1715;0.3195;-1.7705;-8.6047;-0.1651;0.9593;2.9459;0.0;30.79;8.51;5.89;174.87;-34.05;-80.71;5.0;50.51;39.46892;-0.340949;69.3;NaN;;14.497;;0 / 34;9692;2021-10-20 22:34:49:542
-16.856;11.039;11.264;4.0893;7.9392;4.0558;9.6701;-3.5204;-13.8511;-2.9175;-0.7741;1.118;0.0;31.09;8.94;6.06;174.87;-34.05;-80.71;5.0;50.51;39.46892;-0.340949;69.3;NaN;;14.497;;0 / 34;9712;2021-10-20 22:34:49:562
-31.107;10.986;5.672;3.2992;9.0118;2.0111;21.5323;-3.4355;-10.7652;-3.178;-0.784;-0.7487;0.0;31.44;9.36;5.81;227.76;-54.04;-45.24;5.0;50.51;39.46892;-0.340949;69.3;NaN;;14.497;;0 / 34;9732;2021-10-20 22:34:49:582
-34.6691;10.6061;-0.5981;2.9161;9.3613;0.091;28.2307;-3.3034;-2.0745;-3.178;-0.784;-0.7487;0.0;31.69;10.01;5.64;227.76;-54.04;-45.24;5.0;50.51;39.46892;-0.340949;69.3;NaN;;14.497;;0 / 34;9752;2021-10-20 22:34:49:602
-27.584;7.0151;-2.0479;2.4565;9.4571;-0.8619;25.7266;-1.7382;2.3047;-3.178;-0.784;-0.7487;0.0;31.8;11.1;5.34;146.73;-73.16;-110.12;5.0;50.51;39.46892;-0.340949;69.3;NaN;;14.497;;0 / 34;9772;2021-10-20 22:34:49:622
-21.5951;4.205;1.3451;1.5275;9.5912;1.3647;17.9281;1.4204;-0.7873;-3.178;-0.784;-0.7487;0.0;32.4;12.24;4.91;146.73;-73.16;-110.12;5.0;50.51;39.46892;-0.340949;69.3;NaN;;14.497;;0 / 34;9792;2021-10-20 22:34:49:642
-15.7759;1.938;3.303;1.0343;9.505;2.1835;9.5887;4.4501;-3.9221;-1.9488;-0.2188;-2.0835;0.0;32.89;12.66;4.39;218.42;-77.94;-48.22;5.0;50.51;39.46892;-0.340949;69.3;NaN;;14.497;;0 / 34;9812;2021-10-20 22:34:49:662
-10.086;-0.1481;3.264;-1.1684;9.3853;2.6001;3.296;6.3995;-3.8715;-1.9095;-0.21;-2.0459;0.0;33.19;13.14;3.71;218.42;-77.94;-48.22;5.0;50.51;39.46892;-0.340949;69.3;NaN;;14.497;;0 / 34;9832;2021-10-20 22:34:49:682
-5.895;-1.7921;0.459;-2.0494;9.4427;1.6855;-0.4069;7.4;-1.962;-1.9095;-0.21;-2.0459;0.0;33.54;13.5;2.76;294.63;-73.11;24.2;5.0;50.51;39.46892;-0.340949;69.3;NaN;;14.497;;0 / 34;9852;2021-10-20 22:34:49:702
-4.8079;-2.477;-0.787;-5.0805;8.0158;-2.466;-2.6131;7.937;0.0732;-1.1179;-0.0535;-2.274;0.0;33.9;13.26;1.86;294.63;-73.11;24.2;5.0;50.51;39.46892;-0.340949;69.3;NaN;;14.497;;0 / 34;9872;2021-10-20 22:34:49:722
-4.1;-3.231;-2.0051;-6.0861;6.359;-4.3239;-3.958;8.5206;1.6793;-0.5705;0.0664;-2.3983;0.0;34.44;12.9;1.14;23.01;-54.83;115.89;5.0;50.51;39.46892;-0.340949;69.3;NaN;;14.497;;0 / 34;9893;2021-10-20 22:34:49:743
-2.2879;-4.65;-3.523;-6.9097;4.5633;-5.2577;-5.308;9.0784;3.0708;-0.3494;0.1235;-2.6366;0.0;34.99;12.24;0.19;23.01;-54.83;115.89;5.0;50.51;39.46892;-0.340949;69.3;NaN;;14.497;;0 / 34;9912;2021-10-20 22:34:49:762
-1.0219;-5.2009;-3.705;-7.8243;1.8818;-5.6072;-7.052;9.3765;3.5963;-0.6979;0.1783;-3.1863;0.0;35.51;11.34;-0.71;44.76;-27.73;127.27;5.0;50.51;39.46892;-0.340949;69.3;NaN;;14.497;;0 / 34;9932;2021-10-20 22:34:49:782
-0.191;-5.541;-3.8749;-8.0541;0.0;-5.5929;-7.052;9.3765;3.5963;-15.1471;0.8399;-1.0598;0.0;35.81;10.2;-1.26;44.76;-27.73;127.27;5.0;50.51;39.46892;-0.340949;69.3;NaN;;14.497;;0 / 34;9952;2021-10-20 22:34:49:802
2.343;-5.9291;-4.605;-7.3502;-3.0742;-5.7221;-10.1905;10.3272;3.9204;15.1239;2.1725;1.1069;0.0;36.24;9.24;-1.91;78.0;8.39;125.64;5.0;53.266;39.46892;-0.340949;69.3;NaN;;14.497;;0 / 34;9973;2021-10-20 22:34:49:823
2.513;-5.835;-4.14;-7.7237;-3.1077;-5.1906;-11.1592;10.2046;2.1541;12.4238;4.2408;1.8453;0.0;36.79;8.46;-2.21;78.0;8.39;125.64;5.0;53.266;39.46892;-0.340949;69.3;NaN;;14.497;;0 / 34;9992;2021-10-20 22:34:49:842
0.528;-5.479;-1.9121;-9.4092;-0.4357;-2.7342;-9.2378;9.7777;-1.2017;10.5336;5.1157;1.9403;0.0;37.09;7.74;-2.16;94.58;18.47;123.9;5.0;53.266;39.46892;-0.340949;69.3;NaN;;14.497;;0 / 34;10012;2021-10-20 22:34:49:862
-1.5311;-4.365;-0.3971;-6.1339;7.6327;0.5219;-6.281;7.8603;-5.014;9.3528;5.1862;1.7303;0.0;37.31;7.31;-1.91;94.58;18.47;123.9;5.0;53.266;39.46892;-0.340949;69.3;NaN;;14.497;;0 / 34;10032;2021-10-20 22:34:49:882
-5.0119;-3.217;0.404;-0.8475;9.7013;1.1779;-1.172;5.3378;-7.1512;9.3528;5.1862;1.7303;0.0;37.74;7.01;-1.56;357.93;-51.11;85.14;5.0;53.266;39.46892;-0.340949;69.3;NaN;;14.497;;0 / 34;10053;2021-10-20 22:34:49:903
-13.289;3.588;2.372;2.2793;9.4619;1.2019;2.5439;-0.0258;-8.3995;8.2235;3.2797;1.5648;0.0;37.61;6.71;-0.54;357.93;-51.11;85.14;5.0;53.266;39.46892;-0.340949;69.3;NaN;;14.497;;0 / 34;10072;2021-10-20 22:34:49:922
-20.3381;5.7251;4.983;2.6001;9.2033;2.1644;10.5676;-4.0935;-11.4503;8.1993;0.3656;1.9562;0.0;37.61;6.84;0.54;221.74;-70.22;-50.91;5.0;53.266;39.46892;-0.340949;69.3;NaN;;14.497;;0 / 34;10092;2021-10-20 22:34:49:942
-28.374;8.5811;5.4791;2.8683;9.2273;1.6807;19.3765;-7.38;-12.9546;2.9338;-4.0589;-0.034;0.0;37.61;6.9;1.61;221.74;-70.22;-50.91;5.0;53.266;39.46892;-0.340949;69.3;NaN;;14.497;;0 / 34;10112;2021-10-20 22:34:49:962
-29.946;9.9401;3.41;3.0933;9.2656;0.9098;22.7264;-9.2566;-10.4458;-5.3727;-3.8653;-1.8733;0.0;37.2;7.26;3.06;208.99;-70.19;-59.63;5.0;53.266;39.46892;-0.340949;69.3;NaN;;14.497;;0 / 34;10132;2021-10-20 22:34:49:982
-27.4571;10.026;0.957;3.8738;9.007;-0.0335;19.0538;-8.8902;-6.689;-5.038;-3.268;-1.084;0.0;36.9;7.86;4.39;208.99;-70.19;-59.63;5.0;53.266;39.46892;-0.340949;69.3;NaN;;14.497;;0 / 34;10153;2021-10-20 22:34:50:003
-15.1249;8.6;0.287;4.6495;8.6335;0.1197;11.527;-7.4722;-5.4685;-4.6328;-2.7789;-0.6113;0.0;36.49;8.64;5.59;167.91;-66.73;-90.5;5.0;53.266;39.46892;-0.340949;69.3;NaN;;14.497;;0 / 34;10172;2021-10-20 22:34:50:022
-11.1319;8.238;0.5861;5.6551;8.0014;0.3926;4.7098;-6.4704;-5.4352;-4.3227;-2.3224;-0.2967;0.0;36.0;9.0;6.49;167.91;-66.73;-90.5;5.0;53.266;39.46892;-0.340949;69.3;NaN;;14.497;;0 / 34;10192;2021-10-20 22:34:50:042
-8.418;7.6091;-0.078;6.5649;7.2496;-0.6943;0.6747;-5.6163;-4.8396;-4.0961;-1.8952;-0.0499;0.0;35.59;9.54;7.09;168.15;-50.47;-86.13;5.0;53.266;39.46892;-0.340949;69.3;NaN;;14.497;;0 / 34;10212;2021-10-20 22:34:50:062
-7.587;6.7781;-1.263;6.3398;7.3023;-1.6328;-0.8545;-4.2864;-2.9228;-3.8445;-1.5229;0.0576;0.0;35.51;9.9;7.56;168.15;-50.47;-86.13;5.0;53.266;39.46892;-0.340949;69.3;NaN;;14.497;;0 / 34;10232;2021-10-20 22:34:50:082
-6.8239;5.8691;-1.874;6.2297;7.2736;-2.1069;-0.8545;-4.2864;-2.9228;-3.8445;-1.5229;0.0576;0.0;35.59;9.84;7.91;131.13;-47.88;-108.69;5.0;53.266;39.46892;-0.340949;69.3;NaN;;14.497;;0 / 34;10252;2021-10-20 22:34:50:102
-3.7309;3.422;-1.3901;6.5505;6.8761;-2.4469;-4.1458;-0.6376;-1.4431;-3.8445;-1.5229;0.0576;0.0;35.51;9.84;8.29;131.13;-47.88;-108.69;5.0;53.266;39.46892;-0.340949;69.3;NaN;;14.497;;0 / 34;10272;2021-10-20 22:34:50:122
-1.957;2.886;-0.667;8.3462;4.8459;-1.7526;-6.4018;0.4882;-2.3529;-3.8445;-1.5229;0.0576;0.0;35.81;9.9;8.21;125.92;-44.52;-110.48;5.0;44.703;39.46892;-0.340949;69.3;NaN;;14.497;;0 / 34;10293;2021-10-20 22:34:50:143
0.461;2.475;-0.478;7.5609;-5.5162;-2.9353;-8.7854;1.1645;-2.4574;-3.8445;-1.5229;0.0576;0.0;35.94;9.41;8.16;125.92;-44.52;-110.48;5.0;44.703;39.46892;-0.340949;69.3;NaN;;14.497;;0 / 34;10312;2021-10-20 22:34:50:162
1.883;2.2901;-0.988;6.1866;-6.675;-3.6583;-10.5716;1.8106;-1.6583;-3.8445;-1.5229;0.0576;0.0;36.24;9.0;8.04;39.69;34.22;-111.22;5.0;44.703;39.46892;-0.340949;69.3;NaN;;14.497;;0 / 34;10332;2021-10-20 22:34:50:182
3.2861;2.355;-2.4529;4.9177;-6.8714;-4.9752;-11.5155;2.1492;-0.6662;-3.8445;-1.5229;0.0576;0.0;36.49;8.94;8.21;39.69;34.22;-111.22;0.0;44.703;39.46892;-0.340949;69.3;NaN;;14.497;;0 / 34;10352;2021-10-20 22:34:50:202
2.6351;2.166;-2.7379;4.8746;-6.1196;-5.9137;-10.9684;2.7513;-0.2388;-0.2828;0.9758;3.0339;0.0;36.49;8.7;8.46;57.14;44.49;-135.33;0.0;44.703;39.46892;-0.340949;69.3;NaN;;14.497;;0 / 34;10372;2021-10-20 22:34:50:222
1.6421;2.0531;-2.503;7.3502;-2.1548;-6.1244;-9.1876;3.5893;-0.5714;-0.2828;0.9758;3.0339;0.0;36.71;8.46;8.46;57.14;44.49;-135.33;0.0;44.703;39.46892;-0.340949;69.3;NaN;;14.497;;0 / 34;10393;2021-10-20 22:34:50:243
-0.0761;2.7521;-1.6391;8.7293;3.8738;-2.2314;-6.9102;3.6171;-1.8366;0.3398;2.3089;4.5022;0.0;36.54;8.4;8.46;66.57;12.69;-129.8;0.0;44.703;39.46892;-0.340949;69.3;NaN;;14.497;;0 / 34;10412;2021-10-20 22:34:50:262
-1.943;3.8171;-0.816;8.6574;4.5107;0.9242;-3.7667;2.7154;-3.2277;0.0451;2.2188;4.5046;0.0;36.6;8.34;8.34;66.57;12.69;-129.8;0.0;44.703;39.46892;-0.340949;69.3;NaN;;14.497;;0 / 34;10432;2021-10-20 22:34:50:282
-7.8701;9.8351;7.539;6.2489;5.5498;5.1332;-1.4965;-0.1137;-6.6064;0.0451;2.2188;4.5046;0.0;36.79;8.16;8.76;153.92;-27.39;-83.91;0.0;44.703;39.46892;-0.340949;69.3;NaN;;14.497;;0 / 34;10452;2021-10-20 22:34:50:302
-16.762;11.4101;11.247;4.5969;7.3933;4.5155;6.945;-3.2839;-13.4967;-2.4244;-0.3389;1.8799;0.0;36.6;8.16;8.89;153.92;-27.39;-83.91;0.0;44.703;39.46892;-0.340949;69.3;NaN;;14.497;;0 / 34;10473;2021-10-20 22:34:50:323
-28.6489;11.5871;6.7901;3.6871;8.7436;2.4756;19.4163;-3.6072;-12.3066;-3.0508;-0.7718;-0.5114;0.0;36.71;8.46;8.94;225.16;-48.93;-45.51;0.0;44.703;39.46892;-0.340949;69.3;NaN;;14.497;;0 / 34;10493;2021-10-20 22:34:50:343
-33.9799;11.925;0.756;3.1987;9.2703;-0.0048;27.8696;-4.1813;-3.9953;-2.7811;-0.5771;-1.768;0.0;36.84;8.81;9.36;225.16;-48.93;-45.51;0.0;44.703;39.46892;-0.340949;69.3;NaN;;14.497;;0 / 34;10512;2021-10-20 22:34:50:362
-34.513;11.2451;-1.376;3.0071;9.3278;-0.3448;27.8696;-4.1813;-3.9953;-2.459;-0.3997;-2.2252;0.0;36.84;9.36;9.41;157.14;-72.02;-96.54;0.0;44.703;39.46892;-0.340949;69.3;NaN;;14.497;;0 / 34;10532;2021-10-20 22:34:50:382
-23.9861;6.012;3.86;2.2649;9.4044;1.6185;22.2516;-0.8986;-3.8599;-2.3748;-0.3094;-2.2993;0.0;36.9;10.14;9.36;157.14;-72.02;-96.54;5.0;44.703;39.46892;-0.340949;69.3;NaN;;14.497;;0 / 34;10552;2021-10-20 22:34:50:402
-18.699;3.578;4.3871;1.8914;9.3948;2.0925;14.7096;2.446;-5.404;-2.3591;-0.2544;-2.2626;0.0;37.2;10.56;9.11;204.76;-73.51;-54.45;5.0;44.703;39.46892;-0.340949;69.3;NaN;;14.497;;0 / 34;10572;2021-10-20 22:34:50:422
-13.203;0.816;3.525;0.3783;9.481;2.4804;8.1566;5.1261;-4.8965;-2.3383;-0.2054;-2.2007;0.0;37.39;11.04;8.81;204.76;-73.51;-54.45;5.0;44.703;39.46892;-0.340949;69.3;NaN;;14.497;;0 / 34;10592;2021-10-20 22:34:50:442
-10.113;-0.7151;2.348;-0.4022;9.5337;2.2649;8.1566;5.1261;-4.8965;-2.2568;-0.1141;-2.2275;0.0;37.5;10.8;8.21;254.08;-75.18;-8.67;5.0;49.917;39.46892;-0.340949;69.3;NaN;;14.497;;0 / 34;10612;2021-10-20 22:34:50:462
-5.859;-2.64;0.3821;-4.3574;8.7771;0.34;-0.0911;8.3712;-1.4499;-1.961;0.0265;-2.3382;0.0;38.04;10.61;7.86;254.08;-75.18;-8.67;5.0;49.917;39.46892;-0.340949;69.3;NaN;;14.497;;0 / 34;10632;2021-10-20 22:34:50:482
-4.8799;-3.09;-0.476;-5.4492;8.0541;-1.2689;-2.6756;8.9482;0.105;-1.6356;0.1408;-2.4168;0.0;38.29;10.2;7.39;345.31;-63.53;85.54;5.0;49.917;39.46892;-0.340949;69.3;NaN;;14.497;;0 / 34;10652;2021-10-20 22:34:50:502
-2.503;-4.365;-3.09;-7.3215;3.7158;-5.363;-4.5331;9.4059;2.1648;-1.7439;0.216;-2.5303;0.0;38.51;9.54;6.41;345.31;-63.53;85.54;5.0;49.917;39.46892;-0.340949;69.3;NaN;;14.497;;0 / 34;10672;2021-10-20 22:34:50:522
-1.048;-4.784;-3.7841;-7.6567;1.3072;-5.9855;-6.6158;9.6876;3.8543;-2.4773;0.3576;-2.7921;0.0;39.0;8.64;5.51;40.13;-22.27;126.22;5.0;49.917;39.46892;-0.340949;69.3;NaN;;14.497;;0 / 34;10692;2021-10-20 22:34:50:542
0.167;-5.3591;-3.556;-8.26;-0.5842;-5.2577;-8.668;9.74;4.2259;-4.5375;0.7715;-3.2923;0.0;39.49;7.56;4.86;40.13;-22.27;126.22;5.0;49.917;39.46892;-0.340949;69.3;NaN;;14.497;;0 / 34;10712;2021-10-20 22:34:50:562
1.721;-5.783;-2.9651;-8.4563;-2.2553;-4.4293;-8.668;9.74;4.2259;-11.4873;0.2999;-2.8414;0.0;39.9;6.71;4.01;75.0;3.41;122.48;5.0;49.917;39.46892;-0.340949;69.3;NaN;;14.497;;0 / 34;10732;2021-10-20 22:34:50:582
3.3;-5.9051;-3.702;-7.4412;-4.2042;-4.8123;-11.7689;8.5219;5.9197;-13.1216;-2.4133;-3.3107;0.0;40.39;5.94;3.49;75.0;3.41;122.48;5.0;49.917;39.46892;-0.340949;69.3;NaN;;14.497;;0 / 34;10752;2021-10-20 22:34:50:602
3.138;-5.651;-3.87;-7.3358;-4.1468;-5.0182;-12.2602;6.8194;7.8748;-11.9465;-4.2393;-4.593;0.0;40.44;5.46;3.19;118.85;25.38;122.89;0.0;49.917;39.46892;-0.340949;69.3;NaN;;14.497;;0 / 34;10772;2021-10-20 22:34:50:622
1.917;-5.275;-3.1691;-8.1116;-2.6624;-4.8267;-11.1573;4.5459;8.3075;-10.4775;-4.847;-5.3251;0.0;40.69;5.04;2.59;118.85;25.38;122.89;0.0;49.917;39.46892;-0.340949;69.3;NaN;;14.497;;0 / 34;10793;2021-10-20 22:34:50:643
0.351;-4.535;-2.592;-7.3598;6.2776;-1.5945;-8.5226;1.9397;7.989;-9.2324;-4.7466;-5.4113;0.0;40.99;4.5;2.21;104.65;15.75;120.75;0.0;49.917;39.46892;-0.340949;69.3;NaN;;14.497;;0 / 34;10812;2021-10-20 22:34:50:662
-3.3649;-3.0709;-0.433;-3.7206;9.0309;0.8667;-4.1808;-0.9644;6.0402;-8.2038;-4.3196;-4.9042;0.0;40.99;4.2;2.16;104.65;15.75;120.75;0.0;49.917;39.46892;-0.340949;69.3;NaN;;14.497;;0 / 34;10832;2021-10-20 22:34:50:682
-11.7379;1.0121;2.3741;1.0151;9.5672;1.901;2.7821;-5.5599;3.2566;-8.2038;-4.3196;-4.9042;0.0;41.1;4.26;2.21;343.47;-67.07;76.89;0.0;49.917;39.46892;-0.340949;69.3;NaN;;14.497;;0 / 34;10852;2021-10-20 22:34:50:702
-20.175;3.48;3.24;1.5945;9.5481;1.5802;10.8193;-8.8582;1.53;-8.2038;-4.3196;-4.9042;0.0;41.04;4.26;2.51;343.47;-67.07;76.89;0.0;49.917;39.46892;-0.340949;69.3;NaN;;14.497;;0 / 34;10873;2021-10-20 22:34:50:723
-25.164;5.397;3.375;2.1213;9.4906;1.2737;18.2366;-11.5166;0.4944;-8.2038;-4.3196;-4.9042;0.0;40.61;4.56;3.36;222.41;-76.77;-45.26;0.0;49.917;39.46892;-0.340949;69.3;NaN;;14.497;;0 / 34;10892;2021-10-20 22:34:50:742
-28.23;7.214;3.432;2.4421;9.4332;1.1205;21.6887;-13.1902;0.578;-8.2038;-4.3196;-4.9042;0.0;40.39;5.1;3.96;222.41;-76.77;-45.26;0.0;49.917;39.46892;-0.340949;69.3;NaN;;14.497;;0 / 34;10912;2021-10-20 22:34:50:762
-28.386;8.349;3.6551;2.7869;9.323;1.2306;20.9068;-13.4891;0.4934;-8.2038;-4.3196;-4.9042;0.0;40.31;6.06;4.44;200.48;-74.1;-65.35;0.0;52.974;39.46892;-0.340949;69.3;NaN;;14.497;;0 / 34;10932;2021-10-20 22:34:50:782
-22.811;7.8701;0.9281;3.2609;9.2464;0.2251;17.3428;-12.3815;2.3625;-8.2038;-4.3196;-4.9042;0.0;39.9;7.26;4.99;200.48;-74.1;-65.35;0.0;52.974;39.46892;-0.340949;69.3;NaN;;14.497;;0 / 34;10952;2021-10-20 22:34:50:802
-16.714;7.482;-1.8;4.0989;8.8346;-1.1396;10.9436;-11.1631;5.4293;-8.2038;-4.3196;-4.9042;0.0;39.41;8.64;5.76;174.47;-70.53;-86.05;0.0;52.974;39.46892;-0.340949;69.3;NaN;;14.497;;0 / 34;10972;2021-10-20 22:34:50:822
-12.968;7.362;-2.79;4.8937;8.3079;-1.8004;5.2554;-10.2343;7.3069;6.2784;2.1549;1.1129;0.0;39.0;9.96;6.11;174.47;-70.53;-86.05;0.0;52.974;39.46892;-0.340949;69.3;NaN;;14.497;;0 / 34;10992;2021-10-20 22:34:50:842
-10.086;6.915;-1.275;5.4157;8.0637;-1.3599;5.2554;-10.2343;7.3069;5.9718;1.9104;1.1118;0.0;38.21;11.1;6.66;138.57;-57.89;-110.2;0.0;52.974;39.46892;-0.340949;69.3;NaN;;14.497;;0 / 34;11012;2021-10-20 22:34:50:862
-9.033;6.1661;-1.041;5.5162;8.0397;-1.0439;0.9667;-7.9727;5.1721;5.6053;1.6851;1.1393;0.0;37.61;12.24;6.79;138.57;-57.89;-110.2;0.0;52.974;39.46892;-0.340949;69.3;NaN;;14.497;;0 / 34;11032;2021-10-20 22:34:50:882
-7.551;5.498;-1.936;5.6647;7.6854;-2.2505;-0.3607;-6.5206;5.7451;5.329;1.4941;1.1935;0.0;37.5;13.2;6.49;149.78;-55.07;-100.72;0.0;52.974;39.46892;-0.340949;69.3;NaN;;14.497;;0 / 34;11052;2021-10-20 22:34:50:902
-5.562;4.614;-2.838;5.9233;6.4739;-4.3814;-3.0044;-4.8202;6.8515;5.1898;1.3567;1.2909;0.0;36.9;14.34;6.24;149.78;-55.07;-100.72;0.0;52.974;39.46892;-0.340949;69.3;NaN;;14.497;;0 / 34;11072;2021-10-20 22:34:50:922
-1.2251;3.027;-2.688;6.5793;4.5825;-5.6455;-5.903;-2.986;6.9054;5.1833;1.2756;1.4711;0.0;36.49;15.24;5.76;101.8;-41.31;-126.49;0.0;52.974;39.46892;-0.340949;69.3;NaN;;14.497;;0 / 34;11092;2021-10-20 22:34:50:942
