sep=;
ACCELEROMETER X (m/s²);ACCELEROMETER Y (m/s²);ACCELEROMETER Z (m/s²);GRAVITY X (m/s²);GRAVITY Y (m/s²);GRAVITY Z (m/s²);LINEAR ACCELERATION X (m/s²);LINEAR ACCELERATION Y (m/s²);LINEAR ACCELERATION Z (m/s²);GYROSCOPE X (rad/s);GYROSCOPE Y (rad/s);GYROSCOPE Z (rad/s);LIGHT (lux);MAGNETIC FIELD X (μT);MAGNETIC FIELD Y (μT);MAGNETIC FIELD Z (μT);ORIENTATION Z (azimuth °);ORIENTATION X (pitch °);ORIENTATION Y (roll °);PROXIMITY (m);SOUND LEVEL (dB);LOCATION Latitude : ;LOCATION Longitude : ;LOCATION Altitude ( m);LOCATION Altitude-google ( m);LOCATION Speed ( Kmh);LOCATION Accuracy ( m);LOCATION ORIENTATION (°);Satellites in range;Time since start in ms ;YYYY-MO-DD HH-MI-SS_SSS
-2.156;8.696;3.358;8.95;2.174;3.371;-0.397;0.251;-0.381;-0.009;-0.264;0.123;20.0;22.1;-12.7;-16.9;235.2;-12.2;-71.8;5.0;32.66;39.46888;-0.34092;69.4;NaN;;15.708;;0 / 20;9;2021-10-26 22:12:22:132
-2.058;8.952;3.324;8.93;2.073;3.481;-0.298;0.202;-1.031;-0.043;-0.355;0.081;20.0;21.7;-13.1;-17.4;237.4;-12.4;-66.6;5.0;32.66;39.46888;-0.34092;69.4;NaN;;15.708;;0 / 20;59;2021-10-26 22:12:22:182
-1.893;8.772;2.941;9.103;1.863;3.141;-0.484;0.379;-0.06;-0.056;-0.418;0.054;20.0;21.1;-13.3;-17.9;237.1;-10.4;-71.4;5.0;32.66;39.46888;-0.34092;69.4;NaN;;15.708;;0 / 20;109;2021-10-26 22:12:22:232
-1.792;8.765;3.152;9.06;1.853;3.27;-0.584;0.36;-0.118;-0.084;-0.393;0.043;20.0;21.1;-13.2;-17.8;237.7;-11.0;-69.4;5.0;32.66;39.46888;-0.34092;69.4;NaN;;15.708;;0 / 20;159;2021-10-26 22:12:22:282
-1.665;8.858;3.559;8.964;1.662;3.615;-0.481;0.286;-0.328;-0.075;-0.376;0.045;20.0;20.3;-13.0;-18.4;238.5;-9.8;-68.0;5.0;32.66;39.46888;-0.34092;69.4;NaN;;15.708;;0 / 20;209;2021-10-26 22:12:22:332
-1.627;8.767;3.303;9.031;1.709;3.414;-0.5;0.34;-0.09;-0.046;-0.354;0.068;20.0;20.6;-13.3;-18.4;238.0;-9.7;-69.8;5.0;24.3;39.46888;-0.34092;69.4;NaN;;15.708;;0 / 20;259;2021-10-26 22:12:22:382
-1.589;8.672;3.025;9.141;1.623;3.16;-0.582;0.272;-0.006;-0.045;-0.314;0.082;21.0;20.2;-13.6;-18.6;238.0;-9.4;-70.1;5.0;24.3;39.46888;-0.34092;69.4;NaN;;15.708;;0 / 20;309;2021-10-26 22:12:22:432
-1.347;8.727;3.114;9.165;1.393;3.199;-0.532;0.317;0.046;-0.031;-0.254;0.105;21.0;20.5;-13.6;-18.1;236.1;-8.8;-70.8;5.0;24.3;39.46888;-0.34092;69.4;NaN;;15.708;;0 / 20;359;2021-10-26 22:12:22:482
-1.364;8.782;3.403;9.036;1.475;3.519;-0.376;0.312;-0.176;-0.024;-0.177;0.118;21.0;19.9;-13.6;-18.2;236.9;-8.6;-68.7;5.0;24.3;39.46888;-0.34092;69.4;NaN;;15.708;;0 / 20;409;2021-10-26 22:12:22:532
-1.378;8.889;3.164;9.155;1.322;3.261;-0.477;0.29;0.006;-0.019;-0.148;0.116;21.0;19.9;-13.9;-18.3;236.9;-7.8;-69.5;5.0;24.3;39.46888;-0.34092;69.4;NaN;;15.708;;0 / 20;460;2021-10-26 22:12:22:583
-1.273;8.942;2.925;9.227;1.24;3.079;-0.431;0.149;0.339;-0.015;-0.126;0.113;21.0;19.9;-14.2;-18.1;235.9;-7.9;-72.2;5.0;24.3;39.46888;-0.34092;69.4;NaN;;15.708;;0 / 20;509;2021-10-26 22:12:22:632
-1.215;8.906;2.946;9.227;1.259;3.074;-0.31;0.198;0.357;0.003;-0.118;0.105;21.0;19.7;-14.5;-17.8;236.4;-7.3;-71.5;5.0;22.56;39.46888;-0.34092;69.4;NaN;;15.708;;0 / 20;559;2021-10-26 22:12:22:682
-1.244;9.024;2.96;9.242;1.274;3.021;-0.369;0.075;0.358;0.067;-0.111;0.098;21.0;19.4;-14.2;-17.6;236.0;-7.5;-71.9;5.0;22.56;39.46888;-0.34092;69.4;NaN;;15.708;;0 / 20;609;2021-10-26 22:12:22:732
-1.278;9.038;3.03;9.237;1.144;3.093;-0.232;0.105;0.211;0.12;-0.094;0.084;20.0;19.3;-14.4;-17.5;235.0;-7.6;-71.5;5.0;22.56;39.46888;-0.34092;69.4;NaN;;15.708;;0 / 20;659;2021-10-26 22:12:22:782
-1.218;9.246;2.836;9.299;1.211;2.863;-0.342;0.03;0.364;0.109;-0.052;0.089;20.0;19.4;-14.3;-17.3;234.9;-6.6;-72.6;5.0;22.56;39.46888;-0.34092;69.4;NaN;;15.708;;0 / 20;709;2021-10-26 22:12:22:832
-1.266;9.067;3.085;9.251;1.25;3.002;-0.189;0.044;0.079;0.098;-0.03;0.089;20.0;19.9;-14.6;-17.4;233.2;-7.0;-72.7;5.0;22.56;39.46888;-0.34092;69.4;NaN;;15.708;;0 / 20;759;2021-10-26 22:12:22:882
-1.12;9.04;2.946;9.28;1.164;2.954;-0.194;0.147;0.226;0.069;0.014;0.093;20.0;20.3;-14.9;-17.2;233.6;-6.9;-71.6;5.0;22.56;39.46888;-0.34092;69.4;NaN;;15.708;;0 / 20;809;2021-10-26 22:12:22:932
-1.043;9.062;3.018;9.256;1.073;3.06;-0.274;0.214;0.231;0.05;0.055;0.093;20.0;20.2;-15.0;-17.2;233.7;-6.3;-71.9;5.0;22.56;39.46888;-0.34092;69.4;NaN;;15.708;;0 / 20;859;2021-10-26 22:12:22:982
-1.11;9.021;3.018;9.227;1.03;3.151;-0.207;0.2;0.017;0.03;0.094;0.103;20.0;19.9;-15.0;-17.3;233.6;-7.0;-71.7;5.0;19.82;39.46888;-0.34092;69.4;NaN;;15.708;;0 / 20;909;2021-10-26 22:12:23:032
-1.053;8.997;3.138;9.218;1.077;3.17;-0.182;0.261;-0.019;0.007;0.086;0.097;21.0;19.6;-15.0;-17.6;234.1;-6.0;-71.1;5.0;19.82;39.46888;-0.34092;69.4;NaN;;15.708;;0 / 20;959;2021-10-26 22:12:23:082
-1.065;8.851;2.948;9.242;1.092;3.089;-0.143;0.291;-0.018;-0.038;0.074;0.088;21.0;19.6;-15.4;-18.1;235.0;-6.4;-71.5;5.0;19.82;39.46888;-0.34092;69.4;NaN;;15.708;;0 / 20;1009;2021-10-26 22:12:23:132
-1.093;8.894;3.054;9.194;1.125;3.223;-0.151;0.357;0.001;-0.041;0.011;0.06;21.0;19.6;-15.3;-18.4;235.1;-6.6;-71.2;5.0;19.82;39.46888;-0.34092;69.4;NaN;;15.708;;0 / 20;1059;2021-10-26 22:12:23:182
-1.122;8.854;3.114;9.175;1.144;3.266;-0.052;0.436;0.085;-0.041;-0.028;0.042;21.0;19.7;-15.2;-17.9;235.0;-7.0;-71.0;5.0;19.82;39.46888;-0.34092;69.4;NaN;;15.708;;0 / 20;1109;2021-10-26 22:12:23:232
-1.146;8.918;3.14;9.179;1.188;3.232;-0.006;0.294;0.0;-0.033;-0.056;0.011;21.0;19.7;-15.1;-17.5;235.2;-6.8;-70.7;5.0;19.82;39.46888;-0.34092;69.4;NaN;;15.708;;0 / 20;1159;2021-10-26 22:12:23:282
-1.144;8.949;3.078;9.184;1.164;3.232;0.003;0.274;0.007;-0.035;-0.025;-0.001;21.0;19.6;-15.3;-17.2;233.9;-6.8;-70.8;5.0;21.0;39.46888;-0.34092;69.4;NaN;;15.708;;0 / 20;1209;2021-10-26 22:12:23:332
-1.024;8.861;3.178;9.194;1.02;3.256;-0.16;0.352;0.13;-0.041;0.039;0.012;21.0;19.7;-15.6;-17.2;232.3;-6.3;-71.4;5.0;21.0;39.46888;-0.34092;69.4;NaN;;15.708;;0 / 20;1259;2021-10-26 22:12:23:382
-1.103;8.911;3.123;9.222;1.106;3.151;-0.063;0.306;0.091;-0.037;0.105;0.042;21.0;19.6;-15.8;-17.2;233.9;-6.1;-71.0;5.0;21.0;39.46888;-0.34092;69.4;NaN;;15.708;;0 / 20;1309;2021-10-26 22:12:23:432
-1.067;8.913;3.018;9.242;1.058;3.112;-0.073;0.304;0.166;-0.03;0.1;0.045;21.0;19.3;-15.8;-17.3;232.1;-6.5;-71.1;5.0;21.0;39.46888;-0.34092;69.4;NaN;;15.708;;0 / 20;1359;2021-10-26 22:12:23:482
-1.072;8.923;3.128;9.199;1.125;3.213;-0.092;0.33;0.158;-0.016;0.071;0.05;21.0;19.3;-15.4;-16.9;233.8;-6.6;-70.7;5.0;21.0;39.46888;-0.34092;69.4;NaN;;15.708;;0 / 20;1409;2021-10-26 22:12:23:532
-1.072;8.976;3.035;9.285;0.967;3.012;-0.04;0.249;0.16;-0.006;0.049;0.031;21.0;19.3;-15.6;-17.1;231.8;-6.8;-71.6;5.0;21.0;39.46888;-0.34092;69.4;NaN;;15.708;;0 / 20;1459;2021-10-26 22:12:23:582
-1.086;8.899;3.042;9.218;1.125;3.156;-0.115;0.293;0.154;0.01;0.021;0.019;21.0;19.1;-15.0;-17.1;233.7;-6.3;-71.3;5.0;21.0;39.46888;-0.34092;69.4;NaN;;15.708;;0 / 20;1509;2021-10-26 22:12:23:632
-1.036;8.964;2.958;9.261;1.053;3.055;-0.097;0.214;0.119;0.02;-0.002;0.011;21.0;19.3;-14.9;-17.4;233.6;-6.1;-71.7;5.0;19.74;39.46888;-0.34092;69.4;NaN;;15.708;;0 / 20;1559;2021-10-26 22:12:23:682
-1.086;8.945;3.027;9.232;1.087;3.127;-0.06;0.302;0.119;0.029;-0.028;0.008;21.0;19.3;-14.7;-17.5;234.8;-6.5;-71.4;5.0;19.74;39.46888;-0.34092;69.4;NaN;;15.708;;0 / 20;1609;2021-10-26 22:12:23:732
-0.969;8.921;3.051;9.246;0.919;3.136;-0.267;0.224;0.275;0.029;-0.056;0.015;21.0;19.4;-15.3;-17.5;234.7;-5.8;-72.5;5.0;19.74;39.46888;-0.34092;69.4;NaN;;15.708;;0 / 20;1659;2021-10-26 22:12:23:782
-1.034;8.992;3.159;9.194;1.101;3.223;-0.031;0.257;-0.022;0.028;-0.079;0.007;21.0;19.6;-15.6;-17.5;234.9;-6.3;-71.3;5.0;19.74;39.46888;-0.34092;69.4;NaN;;15.708;;0 / 20;1709;2021-10-26 22:12:23:832
-0.976;9.033;2.869;9.29;0.982;2.993;-0.103;0.191;0.246;0.019;-0.057;0.007;21.0;19.4;-15.8;-17.5;233.7;-6.1;-70.9;5.0;19.74;39.46888;-0.34092;69.4;NaN;;15.708;;0 / 20;1759;2021-10-26 22:12:23:882
-0.873;8.937;3.14;9.208;1.03;3.213;-0.184;0.29;0.024;0.004;-0.015;0.017;21.0;19.1;-15.4;-17.7;235.1;-5.8;-71.2;5.0;19.74;39.46888;-0.34092;69.4;NaN;;15.708;;0 / 20;1809;2021-10-26 22:12:23:932
-1.048;9.05;2.932;9.275;1.077;2.988;-0.027;0.209;0.227;0.006;-0.011;0.016;21.0;19.1;-15.2;-17.5;234.7;-6.1;-72.3;5.0;20.54;39.46888;-0.34092;69.4;NaN;;15.708;;0 / 20;1859;2021-10-26 22:12:23:982
-1.014;8.904;3.004;9.261;1.068;3.045;0.061;0.184;0.033;0.011;-0.017;0.009;21.0;19.4;-15.2;-17.4;233.6;-6.6;-71.4;5.0;20.54;39.46888;-0.34092;69.4;NaN;;15.708;;0 / 20;1909;2021-10-26 22:12:24:032
-1.022;8.988;2.958;9.27;1.02;3.036;-0.068;0.268;0.07;0.008;-0.005;0.008;21.0;19.4;-15.7;-17.2;234.1;-6.1;-71.1;5.0;20.54;39.46888;-0.34092;69.4;NaN;;15.708;;0 / 20;1959;2021-10-26 22:12:24:082
-0.983;8.921;3.032;9.232;1.044;3.141;-0.041;0.324;0.064;0.007;0.022;0.005;21.0;19.4;-16.0;-17.3;232.1;-5.9;-71.7;5.0;20.54;39.46888;-0.34092;69.4;NaN;;15.708;;0 / 20;2009;2021-10-26 22:12:24:132
-0.921;9.004;2.992;9.275;0.986;3.031;-0.163;0.352;0.089;0.0;0.026;0.013;21.0;19.6;-16.0;-17.5;232.5;-5.5;-71.4;5.0;20.54;39.46888;-0.34092;69.4;NaN;;15.708;;0 / 20;2059;2021-10-26 22:12:24:182
-0.974;8.906;3.078;9.246;1.006;3.112;-0.077;0.339;0.008;-0.008;0.042;0.022;21.0;19.3;-15.7;-17.7;232.3;-6.1;-71.0;5.0;20.54;39.46888;-0.34092;69.4;NaN;;15.708;;0 / 20;2109;2021-10-26 22:12:24:232
-0.993;8.921;3.032;9.237;1.001;3.146;-0.058;0.351;0.013;-0.015;0.047;0.027;21.0;19.3;-15.7;-17.6;233.4;-5.9;-71.4;5.0;24.92;39.46888;-0.34092;69.4;NaN;;15.708;;0 / 20;2159;2021-10-26 22:12:24:282
-0.971;9.038;2.929;9.266;0.996;3.055;-0.024;0.281;0.144;-0.017;0.003;0.016;21.0;19.0;-15.6;-17.7;233.3;-5.8;-71.8;5.0;24.92;39.46888;-0.34092;69.4;NaN;;15.708;;0 / 20;2209;2021-10-26 22:12:24:332
-0.971;8.957;3.039;9.232;0.996;3.156;-0.044;0.28;0.07;-0.008;-0.033;0.0;21.0;19.0;-15.7;-17.8;233.5;-5.8;-71.2;5.0;24.92;39.46888;-0.34092;69.4;NaN;;15.708;;0 / 20;2259;2021-10-26 22:12:24:382
-1.0;8.98;2.963;9.266;1.039;3.036;-0.027;0.306;0.086;0.001;-0.056;-0.011;21.0;18.8;-15.7;-17.6;233.3;-6.3;-71.3;5.0;24.92;39.46888;-0.34092;69.4;NaN;;15.708;;0 / 20;2309;2021-10-26 22:12:24:432
-1.048;8.976;3.09;9.222;1.049;3.17;0.071;0.281;0.039;0.021;-0.066;-0.022;21.0;19.1;-15.8;-17.6;232.0;-5.9;-71.8;5.0;24.92;39.46888;-0.34092;69.4;NaN;;15.708;;0 / 20;2359;2021-10-26 22:12:24:482
-0.969;9.035;2.987;9.266;1.006;3.045;-0.044;0.214;0.185;0.009;-0.038;-0.027;21.0;19.1;-16.0;-17.4;232.1;-5.9;-71.7;5.0;24.92;39.46888;-0.34092;69.4;NaN;;15.708;;0 / 20;2409;2021-10-26 22:12:24:532
-1.089;8.957;3.03;9.232;1.068;3.136;0.073;0.309;0.075;0.007;-0.018;-0.024;21.0;19.3;-16.0;-17.4;232.1;-6.4;-71.1;5.0;24.92;39.46888;-0.34092;69.4;NaN;;15.708;;0 / 20;2459;2021-10-26 22:12:24:582
-0.911;8.995;3.061;9.232;1.063;3.136;-0.115;0.268;0.032;0.0;0.025;-0.006;21.0;19.4;-15.7;-17.2;231.9;-5.9;-72.2;5.0;20.88;39.46888;-0.34092;69.4;NaN;;15.708;;0 / 20;2509;2021-10-26 22:12:24:632
-1.014;9.009;3.023;9.251;1.049;3.074;-0.01;0.254;0.099;-0.002;0.047;0.007;21.0;19.6;-15.6;-17.2;232.1;-6.2;-71.2;5.0;20.88;39.46888;-0.34092;69.4;NaN;;15.708;;0 / 20;2559;2021-10-26 22:12:24:682
-0.854;8.945;2.989;9.29;0.915;3.002;-0.121;0.295;0.139;-0.005;0.056;0.021;21.0;19.3;-15.3;-17.1;233.8;-5.7;-71.8;5.0;20.88;39.46888;-0.34092;69.4;NaN;;15.708;;0 / 20;2609;2021-10-26 22:12:24:732
-0.911;8.985;3.049;9.261;0.929;3.089;-0.059;0.269;0.125;-0.004;0.053;0.042;21.0;19.4;-15.6;-17.1;232.1;-5.8;-71.6;5.0;20.88;39.46888;-0.34092;69.4;NaN;;15.708;;0 / 20;2659;2021-10-26 22:12:24:782
-0.928;8.897;3.094;9.242;0.967;3.132;-0.084;0.366;0.029;-0.005;0.045;0.046;21.0;18.8;-15.6;-17.0;232.4;-5.5;-71.1;5.0;20.88;39.46888;-0.34092;69.4;NaN;;15.708;;0 / 20;2709;2021-10-26 22:12:24:832
-0.998;8.957;3.059;9.232;1.001;3.16;-0.031;0.299;0.057;-0.009;0.038;0.044;21.0;19.0;-15.7;-17.0;232.4;-5.4;-71.2;5.0;20.88;39.46888;-0.34092;69.4;NaN;;15.708;;0 / 20;2759;2021-10-26 22:12:24:882
-0.993;8.954;3.027;9.251;1.01;3.089;0.005;0.285;0.087;-0.012;0.031;0.029;21.0;19.3;-15.4;-16.6;233.8;-5.9;-71.5;5.0;19.88;39.46888;-0.34092;69.4;NaN;;15.708;;0 / 20;2809;2021-10-26 22:12:24:932
-0.971;9.014;2.877;9.29;0.982;2.988;-0.041;0.271;0.146;-0.015;0.056;0.032;21.0;19.7;-15.6;-16.6;232.4;-5.7;-71.7;5.0;19.88;39.46888;-0.34092;69.4;NaN;;15.708;;0 / 20;2859;2021-10-26 22:12:24:982
-1.029;8.947;3.03;9.227;1.039;3.151;-0.011;0.284;0.12;-0.006;0.074;0.021;21.0;19.6;-15.8;-16.6;232.3;-5.8;-71.8;5.0;19.88;39.46888;-0.34092;69.4;NaN;;15.708;;0 / 20;2909;2021-10-26 22:12:25:032
-0.911;8.978;3.051;9.256;0.996;3.079;-0.082;0.285;0.118;-0.006;0.095;0.028;21.0;19.4;-16.3;-16.7;232.6;-5.8;-71.1;5.0;19.88;39.46888;-0.34092;69.4;NaN;;15.708;;0 / 20;2959;2021-10-26 22:12:25:082
-0.981;9.016;2.92;9.294;0.982;2.974;0.012;0.245;0.195;0.004;0.078;0.024;21.0;19.0;-16.0;-16.7;232.1;-5.7;-71.8;5.0;19.88;39.46888;-0.34092;69.4;NaN;;15.708;;0 / 20;3009;2021-10-26 22:12:25:132
-0.967;8.887;3.087;9.213;1.03;3.199;0.01;0.328;0.082;0.003;0.061;0.016;21.0;19.4;-15.7;-16.9;232.1;-5.9;-71.6;5.0;19.88;39.46888;-0.34092;69.4;NaN;;15.708;;0 / 20;3059;2021-10-26 22:12:25:182
-0.923;8.959;2.996;9.246;1.006;3.108;-0.061;0.289;0.159;0.009;0.01;-0.003;21.0;19.9;-15.6;-17.5;232.3;-5.9;-71.8;5.0;19.88;39.46888;-0.34092;69.4;NaN;;15.708;;0 / 20;3109;2021-10-26 22:12:25:232
-0.981;8.98;3.013;9.256;0.967;3.093;0.031;0.29;0.06;0.012;-0.035;-0.022;21.0;19.9;-15.5;-17.6;235.2;-5.9;-71.4;5.0;20.24;39.46888;-0.34092;69.4;NaN;;15.708;;0 / 20;3159;2021-10-26 22:12:25:282
-0.938;9.004;2.891;9.294;0.948;2.978;-0.054;0.235;0.181;0.012;-0.053;-0.028;21.0;19.6;-15.7;-17.8;233.4;-5.5;-72.2;5.0;20.24;39.46888;-0.34092;69.4;NaN;;15.708;;0 / 20;3209;2021-10-26 22:12:25:332
-1.029;8.968;2.992;9.251;1.097;3.065;0.078;0.331;-0.013;0.014;-0.09;-0.037;21.0;19.6;-15.5;-17.7;233.6;-6.1;-71.3;5.0;20.24;39.46888;-0.34092;69.4;NaN;;15.708;;0 / 20;3259;2021-10-26 22:12:25:382
-1.012;8.995;2.865;9.28;1.015;3.012;0.007;0.223;0.285;0.015;-0.082;-0.038;20.0;19.3;-15.9;-17.5;233.0;-6.2;-72.5;5.0;20.24;39.46888;-0.34092;69.4;NaN;;15.708;;0 / 20;3309;2021-10-26 22:12:25:432
-1.022;8.949;3.178;9.203;1.053;3.227;-0.013;0.264;-0.033;0.018;-0.067;-0.035;20.0;19.3;-16.0;-17.3;232.2;-5.8;-71.5;5.0;20.24;39.46888;-0.34092;69.4;NaN;;15.708;;0 / 20;3359;2021-10-26 22:12:25:482
-0.902;9.019;2.834;9.313;0.943;2.931;-0.102;0.224;0.234;0.016;-0.059;-0.028;20.0;19.0;-16.2;-16.9;231.9;-5.6;-72.4;5.0;20.24;39.46888;-0.34092;69.4;NaN;;15.708;;0 / 20;3409;2021-10-26 22:12:25:532
-0.964;8.916;3.032;9.251;0.934;3.127;-0.05;0.389;0.067;0.012;-0.022;-0.012;20.0;19.1;-16.2;-16.9;232.2;-5.8;-71.4;5.0;21.15;39.46888;-0.34092;69.4;NaN;;15.708;;0 / 20;3459;2021-10-26 22:12:25:582
-0.99;8.992;2.884;9.29;0.982;2.993;-0.009;0.267;0.173;0.002;0.037;0.011;20.0;19.4;-16.0;-16.6;232.1;-6.2;-71.5;5.0;21.15;39.46888;-0.34092;69.4;NaN;;15.708;;0 / 20;3509;2021-10-26 22:12:25:632
-1.007;9.05;2.958;9.27;1.034;3.031;-0.035;0.2;0.143;0.0;0.064;0.026;20.0;19.7;-16.1;-16.9;232.2;-5.7;-72.1;5.0;21.15;39.46888;-0.34092;69.4;NaN;;15.708;;0 / 20;3559;2021-10-26 22:12:25:682
-0.988;8.988;2.948;9.28;1.02;2.998;-0.061;0.242;0.127;0.0;0.076;0.026;20.0;19.7;-15.7;-16.8;232.1;-6.0;-72.1;5.0;21.15;39.46888;-0.34092;69.4;NaN;;15.708;;0 / 20;3609;2021-10-26 22:12:25:732
-0.99;8.992;2.972;9.27;0.996;3.045;-0.101;0.285;0.081;0.003;0.075;0.028;20.0;19.3;-15.4;-16.9;233.8;-5.8;-71.5;5.0;21.15;39.46888;-0.34092;69.4;NaN;;15.708;;0 / 20;3659;2021-10-26 22:12:25:782
-0.916;9.019;2.982;9.27;0.972;3.055;-0.07;0.287;0.102;0.005;0.033;0.02;20.0;19.0;-15.2;-17.2;233.7;-5.9;-71.8;5.0;21.15;39.46888;-0.34092;69.4;NaN;;15.708;;0 / 20;3709;2021-10-26 22:12:25:832
-0.967;8.923;3.066;9.232;1.001;3.151;-0.051;0.356;-0.009;0.005;0.033;0.02;20.0;19.1;-15.4;-16.9;234.1;-5.6;-70.9;5.0;19.54;39.46888;-0.34092;69.4;NaN;;15.708;;0 / 20;3759;2021-10-26 22:12:25:882
-0.902;8.957;2.939;9.275;0.934;3.05;-0.093;0.289;0.115;-0.001;-0.013;0.018;20.0;19.4;-16.0;-16.7;232.0;-5.5;-72.2;5.0;19.54;39.46888;-0.34092;69.4;NaN;;15.708;;0 / 20;3809;2021-10-26 22:12:25:932
-0.998;8.973;2.953;9.27;0.996;3.036;0.009;0.33;0.065;-0.011;-0.014;0.013;20.0;19.6;-16.2;-16.7;232.5;-5.9;-71.2;5.0;19.54;39.46888;-0.34092;69.4;NaN;;15.708;;0 / 20;3859;2021-10-26 22:12:25:982
-0.976;8.93;2.903;9.28;0.986;3.012;-0.092;0.26;0.098;-0.009;0.023;0.019;20.0;19.4;-16.0;-16.6;232.3;-5.9;-71.8;5.0;19.54;39.46888;-0.34092;69.4;NaN;;15.708;;0 / 20;3909;2021-10-26 22:12:26:032
-1.017;8.98;3.073;9.232;1.02;3.146;0.02;0.314;0.086;-0.008;0.032;0.017;21.0;19.3;-15.7;-16.9;232.0;-5.8;-72.0;5.0;19.54;39.46888;-0.34092;69.4;NaN;;15.708;;0 / 20;3959;2021-10-26 22:12:26:082
-1.002;9.012;2.932;9.256;1.068;3.06;0.059;0.341;0.115;-0.007;0.029;-0.006;21.0;19.7;-15.7;-17.0;232.2;-6.3;-71.7;5.0;19.54;39.46888;-0.34092;69.4;NaN;;15.708;;0 / 20;4009;2021-10-26 22:12:26:132
-0.978;8.942;3.001;9.242;0.996;3.122;0.008;0.339;0.062;-0.005;0.021;-0.01;21.0;19.7;-15.4;-17.5;234.1;-6.0;-71.2;5.0;19.54;39.46888;-0.34092;69.4;NaN;;15.708;;0 / 20;4059;2021-10-26 22:12:26:182
-0.945;8.968;2.884;9.294;0.972;2.974;-0.04;0.311;0.037;-0.005;-0.003;-0.019;21.0;19.7;-15.5;-17.2;232.5;-5.7;-71.3;5.0;19.48;39.46888;-0.34092;69.4;NaN;;15.708;;0 / 20;4110;2021-10-26 22:12:26:233
-1.002;8.925;3.023;9.232;1.025;3.151;-0.034;0.296;0.052;0.001;-0.031;-0.021;21.0;19.4;-15.5;-17.0;232.2;-5.7;-72.1;5.0;19.48;39.46888;-0.34092;69.4;NaN;;15.708;;0 / 20;4159;2021-10-26 22:12:26:282
-0.914;9.0;2.968;9.256;1.034;3.069;-0.077;0.254;0.109;-0.002;-0.018;-0.003;21.0;19.3;-15.7;-16.6;232.0;-5.7;-72.1;5.0;19.48;39.46888;-0.34092;69.4;NaN;;15.708;;0 / 20;4209;2021-10-26 22:12:26:332
-1.007;9.038;2.917;9.28;1.01;3.007;-0.006;0.267;0.137;-0.002;-0.011;0.002;21.0;19.4;-15.8;-16.7;232.1;-6.0;-71.7;5.0;19.48;39.46888;-0.34092;69.4;NaN;;15.708;;0 / 20;4259;2021-10-26 22:12:26:382
-0.962;9.0;3.001;9.251;1.025;3.084;-0.005;0.268;0.081;0.004;-0.012;-0.002;22.0;19.7;-15.8;-16.6;232.3;-5.9;-71.6;5.0;19.48;39.46888;-0.34092;69.4;NaN;;15.708;;0 / 20;4309;2021-10-26 22:12:26:432
-1.048;8.98;2.941;9.28;1.015;3.012;0.036;0.27;0.13;0.008;0.023;0.008;22.0;19.7;-15.7;-16.5;232.3;-6.0;-71.6;5.0;19.48;39.46888;-0.34092;69.4;NaN;;15.708;;0 / 20;4359;2021-10-26 22:12:26:482
-1.022;9.014;2.975;9.246;1.063;3.084;0.007;0.258;0.11;0.009;0.052;0.009;22.0;19.4;-15.7;-16.3;230.8;-6.2;-71.6;5.0;21.53;39.46888;-0.34092;69.4;NaN;;15.708;;0 / 20;4409;2021-10-26 22:12:26:532
-1.01;9.002;2.92;9.275;1.01;3.021;0.001;0.301;0.117;0.003;0.065;0.009;22.0;19.4;-15.5;-16.2;230.9;-6.1;-71.2;5.0;21.53;39.46888;-0.34092;69.4;NaN;;15.708;;0 / 20;4459;2021-10-26 22:12:26:582
-1.055;8.985;3.013;9.242;1.077;3.089;-0.057;0.26;0.019;-0.003;0.048;0.006;22.0;19.4;-15.7;-16.8;232.1;-6.1;-71.5;5.0;21.53;39.46888;-0.34092;69.4;NaN;;15.708;;0 / 20;4510;2021-10-26 22:12:26:633
-0.962;9.0;2.896;9.285;1.001;2.998;-0.076;0.314;0.157;-0.011;0.039;0.006;22.0;19.6;-15.7;-17.0;232.4;-6.0;-71.3;5.0;21.53;39.46888;-0.34092;69.4;NaN;;15.708;;0 / 20;4560;2021-10-26 22:12:26:683
-1.046;8.911;3.145;9.208;1.082;3.194;-0.024;0.367;-0.114;-0.002;-0.013;-0.008;22.0;19.3;-15.7;-16.9;232.5;-6.1;-70.4;5.0;21.53;39.46888;-0.34092;69.4;NaN;;15.708;;0 / 20;4609;2021-10-26 22:12:26:732
-0.921;9.05;2.814;9.304;0.91;2.959;-0.052;0.216;0.216;-0.003;-0.04;-0.015;21.0;19.1;-15.5;-16.7;231.9;-6.0;-72.1;5.0;21.53;39.46888;-0.34092;69.4;NaN;;15.708;;0 / 20;4659;2021-10-26 22:12:26:782
-1.086;8.961;3.154;9.194;1.12;3.218;0.046;0.298;-0.108;0.0;-0.044;-0.01;21.0;19.0;-15.7;-16.5;232.2;-5.7;-71.5;5.0;21.53;39.46888;-0.34092;69.4;NaN;;15.708;;0 / 20;4709;2021-10-26 22:12:26:832
-1.005;9.014;2.834;9.313;0.982;2.907;0.019;0.215;0.206;0.0;-0.039;-0.011;21.0;19.4;-15.4;-16.8;232.0;-6.1;-71.7;5.0;25.14;39.46888;-0.34092;69.4;NaN;;15.708;;0 / 20;4759;2021-10-26 22:12:26:882
-0.978;8.964;2.992;9.261;1.03;3.069;-0.021;0.297;0.098;0.001;-0.037;-0.011;21.0;19.6;-15.6;-17.0;232.5;-5.7;-71.3;5.0;25.14;39.46888;-0.34092;69.4;NaN;;15.708;;0 / 20;4809;2021-10-26 22:12:26:932
-1.038;8.937;3.027;9.246;1.044;3.098;-0.007;0.297;-0.011;0.001;-0.037;-0.011;21.0;19.6;-15.6;-17.2;232.6;-6.3;-70.7;5.0;25.14;39.46888;-0.34092;69.4;NaN;;15.708;;0 / 20;4859;2021-10-26 22:12:26:982
-0.99;9.007;2.963;9.256;1.039;3.065;-0.007;0.283;0.099;0.001;-0.037;-0.011;21.0;19.7;-15.7;-17.0;232.3;-5.9;-71.7;5.0;25.14;39.46888;-0.34092;69.4;NaN;;15.708;;0 / 20;4909;2021-10-26 22:12:27:032
-0.995;8.913;3.015;9.242;1.068;3.108;-0.006;0.31;-0.036;-0.008;0.003;0.002;21.0;19.9;-15.6;-17.0;232.4;-5.9;-71.4;5.0;25.14;39.46888;-0.34092;69.4;NaN;;15.708;;0 / 20;4960;2021-10-26 22:12:27:083
-1.01;8.983;2.886;9.29;1.03;2.974;-0.02;0.28;0.204;-0.016;0.004;0.001;21.0;19.6;-15.5;-16.6;232.2;-5.9;-71.9;5.0;25.14;39.46888;-0.34092;69.4;NaN;;15.708;;0 / 20;5009;2021-10-26 22:12:27:132
-0.967;9.028;2.941;9.28;1.025;3.002;0.019;0.251;0.139;-0.009;0.006;-0.003;21.0;19.3;-15.3;-16.6;233.6;-6.4;-71.6;5.0;21.02;39.46888;-0.34092;69.4;NaN;;15.708;;0 / 20;5059;2021-10-26 22:12:27:182
-1.002;8.959;2.982;9.246;1.03;3.108;-0.052;0.305;0.169;-0.005;0.013;-0.004;21.0;19.4;-15.5;-16.6;232.0;-6.2;-71.7;5.0;21.02;39.46888;-0.34092;69.4;NaN;;15.708;;0 / 20;5110;2021-10-26 22:12:27:233
-0.916;8.988;2.91;9.28;0.986;3.021;-0.07;0.251;0.15;0.011;0.024;0.002;21.0;19.4;-15.8;-16.3;231.2;-5.7;-71.5;5.0;21.02;39.46888;-0.34092;69.4;NaN;;15.708;;0 / 20;5159;2021-10-26 22:12:27:282
-0.921;9.052;3.004;9.261;0.962;3.079;-0.085;0.253;0.158;0.009;0.012;0.004;21.0;19.3;-16.0;-16.8;232.1;-5.9;-71.6;5.0;21.02;39.46888;-0.34092;69.4;NaN;;15.708;;0 / 20;5209;2021-10-26 22:12:27:332
-0.983;8.921;2.977;9.242;1.044;3.117;-0.029;0.35;0.059;0.004;0.025;0.012;21.0;19.7;-15.9;-16.5;231.0;-6.2;-71.6;5.0;21.02;39.46888;-0.34092;69.4;NaN;;15.708;;0 / 20;5259;2021-10-26 22:12:27:382
-0.971;8.937;2.992;9.251;1.015;3.098;-0.04;0.31;0.07;0.001;0.032;0.015;21.0;19.6;-16.0;-16.8;232.5;-5.9;-71.0;5.0;21.02;39.46888;-0.34092;69.4;NaN;;15.708;;0 / 20;5309;2021-10-26 22:12:27:432
-1.041;9.024;2.896;9.28;1.01;3.012;0.069;0.269;0.153;0.001;0.032;0.015;21.0;19.7;-16.0;-16.6;232.3;-5.8;-71.9;5.0;21.02;39.46888;-0.34092;69.4;NaN;;15.708;;0 / 20;5359;2021-10-26 22:12:27:482
-0.88;8.997;2.886;9.299;0.929;2.969;-0.124;0.255;0.194;0.001;0.032;0.015;21.0;19.4;-16.0;-16.8;232.0;-5.7;-72.3;5.0;20.66;39.46888;-0.34092;69.4;NaN;;15.708;;0 / 20;5410;2021-10-26 22:12:27:533
-1.077;8.945;3.08;9.227;1.111;3.127;0.092;0.323;-0.026;0.001;0.024;0.003;21.0;19.7;-15.5;-16.6;232.5;-6.2;-71.0;5.0;20.66;39.46888;-0.34092;69.4;NaN;;15.708;;0 / 20;5459;2021-10-26 22:12:27:582
-1.002;9.031;2.85;9.328;1.044;2.844;-0.036;0.256;0.284;0.011;0.015;-0.008;21.0;19.9;-15.1;-16.9;233.7;-6.2;-71.9;5.0;20.66;39.46888;-0.34092;69.4;NaN;;15.708;;0 / 20;5509;2021-10-26 22:12:27:632
-1.046;8.928;3.004;9.237;1.087;3.108;0.042;0.342;0.039;0.024;-0.018;-0.012;21.0;19.7;-14.8;-16.7;233.5;-6.4;-72.5;5.0;20.66;39.46888;-0.34092;69.4;NaN;;15.708;;0 / 20;5559;2021-10-26 22:12:27:682
-1.084;8.99;2.929;9.28;1.097;2.983;-0.072;0.248;0.113;0.017;-0.031;-0.019;21.0;19.6;-15.2;-16.9;233.7;-6.2;-72.1;5.0;20.66;39.46888;-0.34092;69.4;NaN;;15.708;;0 / 20;5609;2021-10-26 22:12:27:732
-0.981;9.009;2.941;9.266;0.986;3.06;-0.047;0.277;0.191;0.016;-0.037;-0.018;20.0;19.3;-15.5;-16.7;231.8;-6.0;-72.4;5.0;20.66;39.46888;-0.34092;69.4;NaN;;15.708;;0 / 20;5659;2021-10-26 22:12:27:782
-1.014;8.933;3.018;9.242;1.053;3.103;-0.022;0.332;-0.015;-0.001;-0.033;-0.015;20.0;19.3;-16.0;-16.6;232.0;-6.0;-71.9;5.0;21.01;39.46888;-0.34092;69.4;NaN;;15.708;;0 / 20;5709;2021-10-26 22:12:27:832
-1.022;8.997;2.898;9.266;1.03;3.041;-0.023;0.29;0.191;0.0;-0.03;-0.01;20.0;19.3;-16.0;-16.3;230.7;-6.2;-71.8;5.0;21.01;39.46888;-0.34092;69.4;NaN;;15.708;;0 / 20;5759;2021-10-26 22:12:27:882
-1.026;9.012;2.977;9.266;1.053;3.041;-0.022;0.262;0.07;0.0;-0.011;-0.002;20.0;19.7;-15.7;-16.4;230.9;-6.2;-71.8;5.0;21.01;39.46888;-0.34092;69.4;NaN;;15.708;;0 / 20;5809;2021-10-26 22:12:27:932
-0.983;8.988;2.946;9.256;1.015;3.074;-0.09;0.289;0.097;-0.004;0.019;0.007;20.0;20.0;-15.6;-16.4;230.9;-6.0;-71.9;5.0;21.01;39.46888;-0.34092;69.4;NaN;;15.708;;0 / 20;5859;2021-10-26 22:12:27:982
-0.964;9.002;2.932;9.275;1.01;3.021;-0.1;0.249;0.069;-0.004;0.019;0.007;20.0;20.2;-16.0;-17.1;232.3;-5.7;-72.0;5.0;21.01;39.46888;-0.34092;69.4;NaN;;15.708;;0 / 20;5909;2021-10-26 22:12:28:032
-0.895;8.973;2.901;9.285;0.958;3.007;-0.123;0.291;0.136;-0.004;0.019;0.007;21.0;20.2;-15.7;-16.9;232.2;-5.9;-72.0;5.0;21.01;39.46888;-0.34092;69.4;NaN;;15.708;;0 / 20;5959;2021-10-26 22:12:28:082
-0.998;9.047;2.963;9.275;0.996;3.031;-0.015;0.225;0.094;-0.001;0.04;0.036;21.0;20.2;-15.7;-17.4;232.2;-5.8;-72.0;5.0;22.54;39.46888;-0.34092;69.4;NaN;;15.708;;0 / 20;6010;2021-10-26 22:12:28:133
-1.005;8.949;2.956;9.256;1.039;3.065;-0.022;0.307;0.107;0.006;-0.022;0.008;21.0;20.2;-15.4;-17.5;235.1;-5.8;-72.0;5.0;22.54;39.46888;-0.34092;69.4;NaN;;15.708;;0 / 20;6059;2021-10-26 22:12:28:182
-1.043;9.035;2.939;9.266;1.068;3.026;-0.003;0.227;0.104;0.011;-0.06;-0.008;21.0;19.9;-15.9;-17.5;233.4;-5.7;-72.1;5.0;22.54;39.46888;-0.34092;69.4;NaN;;15.708;;0 / 20;6109;2021-10-26 22:12:28:232
-1.019;9.007;2.886;9.275;1.058;3.002;0.009;0.296;0.157;0.013;-0.075;-0.033;21.0;19.9;-15.8;-17.1;232.1;-6.3;-71.9;5.0;22.54;39.46888;-0.34092;69.4;NaN;;15.708;;0 / 20;6159;2021-10-26 22:12:28:282
-1.055;8.918;3.109;9.208;1.111;3.184;-0.035;0.351;-0.078;0.011;-0.059;-0.024;21.0;19.7;-16.4;-16.4;231.2;-6.0;-71.2;5.0;22.54;39.46888;-0.34092;69.4;NaN;;15.708;;0 / 20;6209;2021-10-26 22:12:28:332
-1.031;9.055;2.798;9.328;1.049;2.844;0.045;0.269;0.126;0.007;-0.042;-0.019;21.0;19.9;-16.3;-16.6;232.0;-6.4;-72.1;5.0;22.54;39.46888;-0.34092;69.4;NaN;;15.708;;0 / 20;6259;2021-10-26 22:12:28:382
-1.024;8.94;3.035;9.232;1.01;3.141;-0.053;0.269;0.166;-0.006;0.066;0.017;20.0;19.7;-16.2;-16.5;230.6;-6.0;-72.7;5.0;22.54;39.46888;-0.34092;69.4;NaN;;15.708;;0 / 20;6309;2021-10-26 22:12:28:432
-1.012;8.978;2.984;9.27;0.972;3.05;-0.001;0.323;0.072;-0.015;0.09;0.026;20.0;19.6;-15.8;-16.5;232.4;-6.0;-71.5;5.0;21.06;39.46888;-0.34092;69.4;NaN;;15.708;;0 / 20;6359;2021-10-26 22:12:28:482
-0.955;8.976;2.91;9.266;0.991;3.05;-0.056;0.322;0.114;-0.015;0.09;0.026;20.0;19.6;-16.0;-16.7;232.3;-5.8;-71.8;5.0;21.06;39.46888;-0.34092;69.4;NaN;;15.708;;0 / 20;6409;2021-10-26 22:12:28:532
-0.983;8.983;3.023;9.242;1.034;3.108;-0.042;0.322;0.048;-0.015;0.09;0.026;20.0;19.6;-16.2;-17.1;232.3;-6.1;-71.6;5.0;21.06;39.46888;-0.34092;69.4;NaN;;15.708;;0 / 20;6460;2021-10-26 22:12:28:583
-1.046;9.019;2.872;9.294;1.025;2.954;-0.038;0.28;0.16;-0.005;-0.002;0.005;20.0;19.4;-16.0;-17.2;232.1;-5.9;-71.7;5.0;21.06;39.46888;-0.34092;69.4;NaN;;15.708;;0 / 20;6509;2021-10-26 22:12:28:632
-0.99;8.98;2.953;9.285;0.986;3.007;-0.037;0.28;0.121;0.003;-0.063;-0.017;20.0;19.1;-16.0;-17.0;231.9;-5.9;-72.3;5.0;21.06;39.46888;-0.34092;69.4;NaN;;15.708;;0 / 20;6559;2021-10-26 22:12:28:682
-0.945;8.992;2.92;9.266;1.015;3.055;-0.009;0.307;0.067;0.006;-0.076;-0.024;20.0;19.0;-15.6;-16.8;232.1;-5.9;-71.8;5.0;21.06;39.46888;-0.34092;69.4;NaN;;15.708;;0 / 20;6609;2021-10-26 22:12:28:732
-1.048;8.988;3.004;9.266;0.982;3.055;0.031;0.279;0.068;0.008;-0.071;-0.029;21.0;19.1;-15.7;-16.3;230.8;-5.8;-71.8;5.0;19.58;39.46888;-0.34092;69.4;NaN;;15.708;;0 / 20;6659;2021-10-26 22:12:28:782
-1.007;8.976;2.893;9.294;1.03;2.959;-0.026;0.293;0.163;0.006;-0.052;-0.022;21.0;19.9;-15.6;-15.9;230.6;-6.2;-72.0;5.0;19.58;39.46888;-0.34092;69.4;NaN;;15.708;;0 / 20;6709;2021-10-26 22:12:28:832
-1.115;8.968;3.051;9.251;0.9;3.122;-0.028;0.32;0.04;-0.004;0.048;0.012;21.0;19.9;-15.6;-16.1;231.0;-5.9;-71.8;5.0;19.58;39.46888;-0.34092;69.4;NaN;;15.708;;0 / 20;6759;2021-10-26 22:12:28:882
-0.967;9.031;2.929;9.28;1.03;2.998;0.011;0.265;0.095;-0.01;0.097;0.029;21.0;19.7;-15.7;-16.5;230.9;-6.0;-72.1;5.0;19.58;39.46888;-0.34092;69.4;NaN;;15.708;;0 / 20;6809;2021-10-26 22:12:28:932
-0.974;8.968;2.963;9.261;1.015;3.06;-0.018;0.279;0.134;-0.007;0.094;0.028;21.0;19.6;-15.7;-16.8;232.2;-5.9;-72.0;5.0;19.58;39.46888;-0.34092;69.4;NaN;;15.708;;0 / 20;6859;2021-10-26 22:12:28:982
-1.055;8.983;2.958;9.266;1.01;3.045;-0.073;0.252;0.147;-0.006;0.07;0.02;21.0;19.9;-15.5;-17.0;232.2;-5.9;-72.0;5.0;19.58;39.46888;-0.34092;69.4;NaN;;15.708;;0 / 20;6909;2021-10-26 22:12:29:032
-1.012;9.009;2.896;9.309;0.962;2.931;-0.02;0.28;0.105;-0.006;0.07;0.02;20.0;20.2;-15.7;-16.6;232.2;-6.3;-71.7;5.0;19.58;39.46888;-0.34092;69.4;NaN;;15.708;;0 / 20;6959;2021-10-26 22:12:29:082
-1.077;8.971;3.059;9.237;1.053;3.122;-0.034;0.308;0.102;0.006;-0.015;-0.006;20.0;20.3;-15.5;-16.5;231.1;-6.2;-71.3;5.0;20.24;39.46888;-0.34092;69.4;NaN;;15.708;;0 / 20;7009;2021-10-26 22:12:29:132
-0.971;9.019;2.774;9.318;1.03;2.878;0.06;0.24;0.224;0.0;0.015;0.002;20.0;19.9;-15.5;-16.6;232.4;-6.2;-71.1;5.0;20.24;39.46888;-0.34092;69.4;NaN;;15.708;;0 / 20;7059;2021-10-26 22:12:29:182
-1.024;8.966;2.987;9.237;1.053;3.127;0.016;0.281;0.043;0.0;0.015;0.002;20.0;20.0;-15.7;-16.6;230.7;-5.9;-72.6;5.0;20.24;39.46888;-0.34092;69.4;NaN;;15.708;;0 / 20;7109;2021-10-26 22:12:29:232
-0.981;8.933;2.956;9.266;1.006;3.06;-0.057;0.309;0.069;0.001;0.036;-0.003;20.0;20.3;-16.0;-16.6;232.4;-6.2;-71.2;5.0;20.24;39.46888;-0.34092;69.4;NaN;;15.708;;0 / 20;7159;2021-10-26 22:12:29:282
-0.983;8.933;2.963;9.261;1.03;3.06;-0.047;0.35;0.067;0.0;0.034;0.003;20.0;20.5;-16.2;-16.8;232.3;-6.0;-71.7;5.0;20.24;39.46888;-0.34092;69.4;NaN;;15.708;;0 / 20;7210;2021-10-26 22:12:29:333
-0.993;8.973;2.948;9.266;1.053;3.036;-0.036;0.254;0.068;-0.011;0.038;0.009;20.0;20.3;-16.0;-17.0;232.2;-6.1;-71.9;5.0;20.24;39.46888;-0.34092;69.4;NaN;;15.708;;0 / 20;7259;2021-10-26 22:12:29:382
-1.024;8.995;2.886;9.28;1.058;2.988;-0.008;0.252;0.1;-0.017;0.041;0.018;21.0;19.9;-16.0;-17.0;232.1;-6.2;-72.0;5.0;20.41;39.46888;-0.34092;69.4;NaN;;15.708;;0 / 20;7309;2021-10-26 22:12:29:432
-1.029;8.985;2.992;9.266;1.058;3.041;-0.073;0.306;0.159;-0.003;-0.017;-0.001;21.0;19.7;-16.1;-17.0;232.1;-6.0;-72.2;5.0;20.41;39.46888;-0.34092;69.4;NaN;;15.708;;0 / 20;7359;2021-10-26 22:12:29:482
-1.031;8.937;2.874;9.27;1.039;3.021;-0.004;0.251;0.037;0.01;-0.049;-0.014;21.0;19.4;-15.7;-16.8;231.9;-6.1;-71.9;5.0;20.41;39.46888;-0.34092;69.4;NaN;;15.708;;0 / 20;7410;2021-10-26 22:12:29:533
-0.955;8.968;2.877;9.285;1.001;2.998;-0.071;0.28;0.127;0.01;-0.049;-0.014;21.0;19.4;-15.9;-16.8;231.9;-5.9;-72.3;5.0;20.41;39.46888;-0.34092;69.4;NaN;;15.708;;0 / 20;7459;2021-10-26 22:12:29:582
-0.998;8.964;2.905;9.29;1.03;2.969;-0.016;0.31;0.12;0.01;-0.049;-0.014;21.0;19.6;-15.6;-16.6;232.1;-6.0;-72.1;5.0;20.41;39.46888;-0.34092;69.4;NaN;;15.708;;0 / 20;7509;2021-10-26 22:12:29:632
-1.053;8.995;2.862;9.29;1.087;2.95;-0.015;0.284;0.062;0.014;-0.046;-0.013;21.0;19.6;-15.7;-16.7;232.1;-6.0;-72.3;5.0;20.41;39.46888;-0.34092;69.4;NaN;;15.708;;0 / 20;7559;2021-10-26 22:12:29:682
-1.041;9.007;2.915;9.29;1.025;2.978;-0.055;0.285;0.126;0.013;-0.025;-0.004;21.0;19.4;-15.1;-16.5;232.2;-6.3;-72.0;5.0;20.41;39.46888;-0.34092;69.4;NaN;;15.708;;0 / 20;7610;2021-10-26 22:12:29:733
-0.998;8.988;2.927;9.285;1.039;2.983;0.015;0.273;0.094;0.01;-0.006;0.0;21.0;19.4;-15.3;-16.5;232.1;-6.3;-72.2;5.0;20.54;39.46888;-0.34092;69.4;NaN;;15.708;;0 / 20;7659;2021-10-26 22:12:29:782
-1.034;9.002;2.853;9.29;1.063;2.954;0.003;0.248;0.157;0.012;0.0;0.001;21.0;19.7;-15.7;-16.3;232.0;-6.2;-72.3;5.0;20.54;39.46888;-0.34092;69.4;NaN;;15.708;;0 / 20;7710;2021-10-26 22:12:29:833
-1.103;9.031;2.925;9.27;1.14;2.988;0.029;0.29;0.098;0.01;0.001;-0.005;21.0;19.9;-15.9;-16.8;231.9;-6.5;-72.2;5.0;20.54;39.46888;-0.34092;69.4;NaN;;15.708;;0 / 20;7759;2021-10-26 22:12:29:882
-1.034;9.05;2.893;9.28;1.082;2.978;-0.032;0.236;0.12;0.01;0.001;-0.012;21.0;19.7;-16.0;-16.5;230.6;-6.1;-72.8;5.0;20.54;39.46888;-0.34092;69.4;NaN;;15.708;;0 / 20;7809;2021-10-26 22:12:29:932
-1.156;9.004;2.838;9.299;1.164;2.887;0.125;0.291;-0.02;0.006;0.023;-0.015;21.0;19.4;-16.2;-16.6;231.9;-6.9;-71.4;5.0;20.54;39.46888;-0.34092;69.4;NaN;;15.708;;0 / 20;7859;2021-10-26 22:12:29:982
-0.988;9.0;2.848;9.294;1.03;2.959;-0.039;0.278;0.247;0.013;0.012;-0.018;21.0;19.4;-16.3;-16.6;231.3;-6.4;-73.4;5.0;20.54;39.46888;-0.34092;69.4;NaN;;15.708;;0 / 20;7909;2021-10-26 22:12:30:032
-1.017;8.988;2.994;9.256;1.039;3.065;-0.046;0.32;-0.017;0.013;0.002;-0.017;21.0;19.6;-16.3;-16.9;232.0;-6.0;-72.3;5.0;20.84;39.46888;-0.34092;69.4;NaN;;15.708;;0 / 20;7959;2021-10-26 22:12:30:082
-1.012;8.964;2.884;9.285;1.02;2.983;-0.106;0.375;0.061;0.013;0.002;-0.017;21.0;19.7;-16.0;-16.7;232.1;-6.0;-72.2;5.0;20.84;39.46888;-0.34092;69.4;NaN;;15.708;;0 / 20;8009;2021-10-26 22:12:30:132
-1.067;8.954;2.915;9.266;1.082;3.026;-0.037;0.335;0.057;0.01;-0.022;-0.005;21.0;19.6;-15.8;-16.6;232.2;-5.8;-72.1;5.0;20.84;39.46888;-0.34092;69.4;NaN;;15.708;;0 / 20;8059;2021-10-26 22:12:30:182
-1.125;9.002;2.956;9.261;1.12;3.031;0.063;0.322;0.059;-0.012;-0.008;0.009;21.0;19.4;-15.4;-16.6;231.9;-6.6;-71.8;5.0;20.84;39.46888;-0.34092;69.4;NaN;;15.708;;0 / 20;8109;2021-10-26 22:12:30:232
-1.024;9.016;2.855;9.304;1.053;2.911;-0.068;0.279;0.134;-0.013;-0.01;0.004;21.0;19.6;-15.2;-16.8;233.5;-6.9;-72.0;5.0;20.84;39.46888;-0.34092;69.4;NaN;;15.708;;0 / 20;8159;2021-10-26 22:12:30:282
-1.053;9.052;2.877;9.285;1.077;2.969;-0.068;0.278;0.137;-0.002;-0.022;-0.011;21.0;19.9;-15.7;-16.6;232.0;-6.3;-72.3;5.0;20.84;39.46888;-0.34092;69.4;NaN;;15.708;;0 / 20;8209;2021-10-26 22:12:30:332
-1.031;9.0;2.802;9.309;1.02;2.916;-0.057;0.291;0.18;0.001;-0.01;-0.008;21.0;19.7;-15.8;-16.4;230.7;-6.3;-72.2;5.0;20.84;39.46888;-0.34092;69.4;NaN;;15.708;;0 / 20;8259;2021-10-26 22:12:30:382
-1.101;9.012;2.939;9.266;1.12;3.012;0.012;0.293;0.092;0.011;0.0;0.002;20.0;19.7;-15.9;-16.6;232.0;-6.3;-72.2;5.0;19.77;39.46888;-0.34092;69.4;NaN;;15.708;;0 / 20;8309;2021-10-26 22:12:30:432
-1.036;9.043;2.896;9.29;1.049;2.964;-0.055;0.24;0.047;0.009;0.018;0.008;20.0;19.6;-15.8;-16.7;232.1;-6.1;-72.2;5.0;19.77;39.46888;-0.34092;69.4;NaN;;15.708;;0 / 20;8359;2021-10-26 22:12:30:482
-1.043;8.98;2.855;9.28;1.087;2.978;-0.04;0.31;0.11;0.004;0.024;0.012;20.0;20.0;-15.9;-17.0;232.1;-6.1;-72.1;5.0;19.77;39.46888;-0.34092;69.4;NaN;;15.708;;0 / 20;8409;2021-10-26 22:12:30:532
-1.103;9.028;2.932;9.256;1.12;3.041;0.015;0.296;0.028;-0.002;0.014;0.005;20.0;20.2;-15.7;-16.6;232.0;-6.4;-72.2;5.0;19.77;39.46888;-0.34092;69.4;NaN;;15.708;;0 / 20;8459;2021-10-26 22:12:30:582
-1.038;9.016;2.8;9.304;1.082;2.911;-0.026;0.254;0.168;-0.01;0.018;0.005;20.0;20.2;-15.7;-16.7;231.9;-6.2;-72.6;5.0;19.77;39.46888;-0.34092;69.4;NaN;;15.708;;0 / 20;8509;2021-10-26 22:12:30:632
-1.034;8.997;2.898;9.285;1.068;2.978;-0.03;0.321;0.074;-0.006;0.025;-0.004;20.0;20.0;-15.5;-16.6;231.9;-6.5;-72.3;5.0;19.77;39.46888;-0.34092;69.4;NaN;;15.708;;0 / 20;8560;2021-10-26 22:12:30:683
-1.093;9.024;2.869;9.299;1.082;2.926;-0.026;0.279;0.143;-0.006;0.025;-0.004;20.0;20.0;-15.4;-16.8;233.7;-6.4;-72.0;5.0;21.34;39.46888;-0.34092;69.4;NaN;;15.708;;0 / 20;8609;2021-10-26 22:12:30:732
-1.014;9.014;2.889;9.28;1.039;3.002;-0.111;0.279;0.101;0.004;-0.001;-0.007;20.0;19.7;-15.4;-16.8;233.6;-6.2;-72.3;5.0;21.34;39.46888;-0.34092;69.4;NaN;;15.708;;0 / 20;8659;2021-10-26 22:12:30:782
-1.098;8.992;2.929;9.251;1.307;2.978;0.037;0.306;0.046;0.004;-0.003;-0.007;20.0;19.6;-15.6;-16.6;231.6;-7.7;-72.2;5.0;21.34;39.46888;-0.34092;69.4;NaN;;15.708;;0 / 20;8710;2021-10-26 22:12:30:833
-1.002;8.945;2.793;9.285;1.063;2.974;-0.048;0.321;0.247;0.015;-0.042;-0.018;20.0;19.3;-16.0;-16.6;231.5;-6.3;-73.1;5.0;21.34;39.46888;-0.34092;69.4;NaN;;15.708;;0 / 20;8759;2021-10-26 22:12:30:882
-1.096;8.964;2.975;9.242;1.125;3.079;0.003;0.39;-0.003;0.017;-0.062;-0.037;20.0;19.3;-16.0;-16.8;232.1;-6.2;-71.2;5.0;21.34;39.46888;-0.34092;69.4;NaN;;15.708;;0 / 20;8809;2021-10-26 22:12:30:932
-1.053;8.98;2.908;9.275;1.082;2.998;-0.022;0.308;0.143;0.012;-0.049;-0.038;20.0;19.6;-16.0;-17.0;231.8;-6.4;-72.0;5.0;21.34;39.46888;-0.34092;69.4;NaN;;15.708;;0 / 20;8859;2021-10-26 22:12:30:982
-1.105;8.966;2.901;9.266;1.154;2.998;-0.04;0.349;0.046;0.006;-0.035;-0.023;20.0;19.9;-15.3;-17.0;233.5;-6.8;-72.0;5.0;21.34;39.46888;-0.34092;69.4;NaN;;15.708;;0 / 20;8909;2021-10-26 22:12:31:032
-1.081;9.028;2.802;9.304;1.144;2.883;0.009;0.292;0.052;-0.009;-0.046;-0.022;21.0;20.0;-15.7;-17.1;232.0;-6.6;-72.1;5.0;21.31;39.46888;-0.34092;69.4;NaN;;15.708;;0 / 20;8959;2021-10-26 22:12:31:082
-1.12;8.971;2.901;9.27;1.14;2.988;-0.02;0.29;0.165;-0.003;-0.024;-0.014;21.0;20.0;-15.4;-16.9;231.7;-6.8;-72.5;5.0;21.31;39.46888;-0.34092;69.4;NaN;;15.708;;0 / 20;9009;2021-10-26 22:12:31:132
-1.129;9.009;2.901;9.261;1.154;3.007;-0.011;0.289;0.045;-0.003;-0.024;-0.014;21.0;20.0;-15.8;-16.6;233.5;-6.6;-72.2;5.0;21.31;39.46888;-0.34092;69.4;NaN;;15.708;;0 / 20;9059;2021-10-26 22:12:31:182
-1.055;8.988;2.884;9.28;1.101;2.978;-0.084;0.274;0.087;-0.003;-0.024;-0.014;21.0;19.9;-15.1;-16.6;233.6;-6.3;-72.4;5.0;21.31;39.46888;-0.34092;69.4;NaN;;15.708;;0 / 20;9109;2021-10-26 22:12:31:232
-1.072;8.964;2.846;9.29;1.097;2.95;-0.072;0.301;0.114;-0.005;0.028;0.005;21.0;19.6;-14.8;-16.6;233.7;-6.4;-72.0;5.0;21.31;39.46888;-0.34092;69.4;NaN;;15.708;;0 / 20;9160;2021-10-26 22:12:31:283
-1.074;8.973;2.893;9.28;1.14;2.964;-0.058;0.274;0.088;-0.005;0.028;0.01;21.0;19.4;-15.2;-17.1;233.3;-6.3;-72.5;5.0;21.31;39.46888;-0.34092;69.4;NaN;;15.708;;0 / 20;9209;2021-10-26 22:12:31:332
-1.048;8.992;2.817;9.29;1.097;2.94;-0.094;0.329;0.074;-0.003;0.013;0.01;21.0;19.6;-15.7;-16.8;233.5;-6.7;-72.3;5.0;22.31;39.46888;-0.34092;69.4;NaN;;15.708;;0 / 20;9259;2021-10-26 22:12:31:382
-1.12;8.992;2.905;9.261;1.164;3.002;-0.018;0.289;0.074;0.006;-0.031;0.002;21.0;19.7;-16.0;-16.9;231.8;-6.5;-72.5;5.0;22.31;39.46888;-0.34092;69.4;NaN;;15.708;;0 / 20;9309;2021-10-26 22:12:31:432
-1.081;9.012;2.858;9.285;1.154;2.94;-0.001;0.29;0.115;0.003;-0.016;0.002;21.0;19.7;-15.9;-16.8;231.8;-6.7;-72.3;5.0;22.31;39.46888;-0.34092;69.4;NaN;;15.708;;0 / 20;9359;2021-10-26 22:12:31:482
-1.074;9.035;2.92;9.261;1.092;3.031;0.014;0.236;0.114;0.003;0.009;0.002;21.0;19.7;-15.8;-16.3;230.5;-6.6;-72.4;5.0;22.31;39.46888;-0.34092;69.4;NaN;;15.708;;0 / 20;9409;2021-10-26 22:12:31:532
-1.103;9.012;2.79;9.294;1.116;2.921;-0.002;0.263;0.139;0.0;0.02;-0.002;21.0;19.7;-15.9;-16.3;230.5;-6.5;-72.5;5.0;22.31;39.46888;-0.34092;69.4;NaN;;15.708;;0 / 20;9459;2021-10-26 22:12:31:582
-1.065;8.964;2.913;9.28;1.058;2.988;-0.087;0.318;0.165;-0.002;0.071;0.02;21.0;20.2;-15.7;-16.5;230.8;-6.2;-72.2;5.0;22.31;39.46888;-0.34092;69.4;NaN;;15.708;;0 / 20;9509;2021-10-26 22:12:31:632
-1.201;9.038;2.865;9.256;1.259;2.978;0.089;0.291;0.053;-0.005;0.078;0.023;21.0;20.5;-15.5;-16.9;232.1;-7.1;-71.9;5.0;22.31;39.46888;-0.34092;69.4;NaN;;15.708;;0 / 20;9559;2021-10-26 22:12:31:682
-1.091;9.064;2.812;9.304;1.111;2.897;-0.021;0.224;0.269;-0.005;0.078;0.023;21.0;20.3;-15.6;-17.2;231.8;-7.0;-72.7;5.0;20.85;39.46888;-0.34092;69.4;NaN;;15.708;;0 / 20;9609;2021-10-26 22:12:31:732
-1.084;8.945;3.071;9.222;1.092;3.156;-0.037;0.442;0.036;-0.003;0.061;0.016;21.0;19.7;-15.8;-16.8;230.7;-9.1;-73.2;5.0;20.85;39.46888;-0.34092;69.4;NaN;;15.708;;0 / 20;9659;2021-10-26 22:12:31:782
-1.062;8.952;2.802;9.309;1.077;2.892;-0.067;0.291;0.039;-0.008;-0.008;-0.008;21.0;19.6;-15.2;-16.7;233.4;-6.3;-72.7;5.0;20.85;39.46888;-0.34092;69.4;NaN;;15.708;;0 / 20;9709;2021-10-26 22:12:31:832
-1.043;8.964;3.054;9.242;1.097;3.089;-0.001;0.33;0.031;-0.008;-0.008;-0.008;21.0;19.6;-15.2;-16.7;233.6;-6.0;-72.6;5.0;20.85;39.46888;-0.34092;69.4;NaN;;15.708;;0 / 20;9759;2021-10-26 22:12:31:882
-1.084;8.995;2.843;9.275;1.125;2.978;-0.056;0.272;0.066;-0.015;-0.037;-0.014;21.0;19.9;-15.1;-16.8;233.7;-6.3;-71.8;5.0;20.85;39.46888;-0.34092;69.4;NaN;;15.708;;0 / 20;9809;2021-10-26 22:12:31:932
-1.136;9.045;2.819;9.285;1.173;2.921;-0.015;0.202;0.087;-0.005;-0.035;-0.01;21.0;20.0;-15.7;-16.6;233.5;-6.6;-72.2;5.0;20.85;39.46888;-0.34092;69.4;NaN;;15.708;;0 / 20;9859;2021-10-26 22:12:31:982
-1.026;9.016;2.81;9.309;1.097;2.887;-0.097;0.243;0.169;0.001;-0.021;-0.007;21.0;19.6;-16.1;-16.6;231.7;-6.4;-72.8;5.0;20.73;39.46888;-0.34092;69.4;NaN;;15.708;;0 / 20;9909;2021-10-26 22:12:32:032
-1.134;8.976;2.869;9.299;1.13;2.897;0.013;0.313;0.095;0.018;-0.012;-0.001;20.0;19.6;-16.5;-16.5;230.6;-6.8;-72.1;5.0;20.73;39.46888;-0.34092;69.4;NaN;;15.708;;0 / 20;9959;2021-10-26 22:12:32:082
-1.153;9.024;3.02;9.218;1.125;3.151;-0.04;0.234;0.156;0.021;0.011;0.007;20.0;19.3;-16.0;-16.3;230.3;-6.5;-72.5;5.0;20.73;39.46888;-0.34092;69.4;NaN;;15.708;;0 / 20;10009;2021-10-26 22:12:32:132
-1.086;9.021;2.893;9.275;1.13;2.974;-0.01;0.305;0.093;0.011;0.011;0.007;20.0;19.3;-15.7;-16.6;230.3;-6.5;-72.5;5.0;20.73;39.46888;-0.34092;69.4;NaN;;15.708;;0 / 20;10059;2021-10-26 22:12:32:182
-1.05;8.954;2.932;9.266;1.058;3.031;-0.09;0.319;0.063;0.007;0.0;0.002;20.0;19.4;-15.2;-16.7;233.4;-6.4;-72.2;5.0;20.73;39.46888;-0.34092;69.4;NaN;;15.708;;0 / 20;10109;2021-10-26 22:12:32:232
-1.002;9.038;2.905;9.29;1.063;2.954;-0.088;0.277;0.081;0.007;0.0;0.002;20.0;19.4;-15.4;-16.9;233.4;-6.2;-72.4;5.0;20.73;39.46888;-0.34092;69.4;NaN;;15.708;;0 / 20;10159;2021-10-26 22:12:32:282
-1.041;8.995;2.838;9.313;1.101;2.868;-0.071;0.29;0.045;-0.01;-0.016;0.003;20.0;19.9;-15.7;-16.9;231.9;-6.3;-72.4;5.0;20.73;39.46888;-0.34092;69.4;NaN;;15.708;;0 / 20;10209;2021-10-26 22:12:32:332
-1.057;8.937;2.858;9.285;1.058;2.969;-0.09;0.262;0.118;-0.002;-0.043;0.003;20.0;19.7;-15.7;-17.1;231.9;-6.2;-72.6;5.0;21.26;39.46888;-0.34092;69.4;NaN;;15.708;;0 / 20;10259;2021-10-26 22:12:32:382
-1.067;9.024;2.905;9.285;1.087;2.959;0.024;0.29;0.132;0.0;-0.044;0.001;19.0;19.6;-16.0;-16.8;231.9;-6.4;-72.3;5.0;21.26;39.46888;-0.34092;69.4;NaN;;15.708;;0 / 20;10309;2021-10-26 22:12:32:432
-1.06;8.949;2.81;9.294;1.101;2.931;-0.053;0.278;0.072;0.02;-0.034;-0.005;19.0;19.4;-16.1;-16.8;231.9;-6.1;-72.1;5.0;21.26;39.46888;-0.34092;69.4;NaN;;15.708;;0 / 20;10359;2021-10-26 22:12:32:482
-1.074;9.021;2.714;9.313;1.168;2.84;0.016;0.212;0.068;0.008;-0.016;-0.012;19.0;19.3;-16.0;-16.3;230.3;-6.6;-72.4;5.0;21.26;39.46888;-0.34092;69.4;NaN;;15.708;;0 / 20;10409;2021-10-26 22:12:32:532
-1.048;8.976;2.975;9.246;1.058;3.093;-0.031;0.24;0.118;0.012;0.005;-0.011;19.0;19.7;-16.0;-16.5;230.1;-6.6;-73.5;5.0;21.26;39.46888;-0.34092;69.4;NaN;;15.708;;0 / 20;10459;2021-10-26 22:12:32:582
-1.022;9.031;2.896;9.28;1.049;2.993;-0.021;0.309;0.073;0.007;0.032;0.0;19.0;19.6;-15.4;-16.5;232.5;-6.1;-72.1;5.0;21.26;39.46888;-0.34092;69.4;NaN;;15.708;;0 / 20;10509;2021-10-26 22:12:32:632
-1.012;8.978;2.822;9.304;1.03;2.926;-0.135;0.337;0.096;0.002;0.033;0.004;19.0;19.4;-15.7;-16.6;231.9;-5.9;-72.3;5.0;20.18;39.46888;-0.34092;69.4;NaN;;15.708;;0 / 20;10559;2021-10-26 22:12:32:682
-1.024;8.985;2.925;9.27;1.025;3.026;-0.093;0.337;0.068;-0.002;0.023;0.013;19.0;19.4;-15.7;-16.5;231.7;-6.2;-72.5;5.0;20.18;39.46888;-0.34092;69.4;NaN;;15.708;;0 / 20;10609;2021-10-26 22:12:32:732
-1.086;9.05;2.838;9.299;1.092;2.916;-0.043;0.256;0.07;-0.008;0.023;0.02;20.0;19.3;-16.0;-16.5;230.7;-6.3;-72.3;5.0;20.18;39.46888;-0.34092;69.4;NaN;;15.708;;0 / 20;10659;2021-10-26 22:12:32:782
-1.062;8.992;2.819;9.304;1.053;2.916;-0.09;0.242;0.167;-0.008;0.023;0.02;20.0;19.6;-16.0;-16.4;230.6;-6.2;-72.6;5.0;20.18;39.46888;-0.34092;69.4;NaN;;15.708;;0 / 20;10709;2021-10-26 22:12:32:832
-0.983;9.0;2.848;9.313;1.015;2.892;-0.093;0.285;0.071;0.001;0.014;0.021;20.0;19.3;-15.7;-16.3;230.5;-6.1;-72.3;5.0;20.18;39.46888;-0.34092;69.4;NaN;;15.708;;0 / 20;10760;2021-10-26 22:12:32:883
-1.007;9.04;2.872;9.299;1.025;2.94;-0.071;0.26;0.107;0.009;0.017;0.022;20.0;19.9;-16.0;-16.1;230.7;-5.9;-72.5;5.0;20.18;39.46888;-0.34092;69.4;NaN;;15.708;;0 / 20;10809;2021-10-26 22:12:32:932
-1.022;8.985;2.944;9.27;1.03;3.031;-0.078;0.331;0.02;0.007;0.028;0.026;20.0;19.4;-15.9;-16.4;230.7;-6.2;-72.5;5.0;20.89;39.46888;-0.34092;69.4;NaN;;15.708;;0 / 20;10859;2021-10-26 22:12:32:982
-1.017;8.99;2.91;9.29;1.053;2.969;-0.045;0.278;0.058;0.003;0.026;0.024;20.0;19.4;-16.0;-16.3;230.5;-6.2;-72.3;5.0;20.89;39.46888;-0.34092;69.4;NaN;;15.708;;0 / 20;10909;2021-10-26 22:12:33:032
-1.014;9.002;2.834;9.285;1.03;2.988;-0.039;0.292;0.139;-0.003;0.028;0.019;20.0;19.3;-16.0;-16.0;230.3;-6.0;-72.9;5.0;20.89;39.46888;-0.34092;69.4;NaN;;15.708;;0 / 20;10960;2021-10-26 22:12:33:083
-1.01;9.012;2.86;9.299;1.025;2.94;-0.008;0.238;0.005;-0.009;0.021;0.011;20.0;19.0;-15.8;-16.3;230.4;-6.1;-72.5;5.0;20.89;39.46888;-0.34092;69.4;NaN;;15.708;;0 / 20;11009;2021-10-26 22:12:33:132
-1.012;8.99;2.846;9.294;1.073;2.945;-0.035;0.305;0.144;-0.003;-0.009;-0.003;20.0;18.8;-15.9;-16.3;230.6;-5.7;-72.4;5.0;20.89;39.46888;-0.34092;69.4;NaN;;15.708;;0 / 20;11059;2021-10-26 22:12:33:182
-1.041;9.045;2.903;9.29;1.039;2.959;-0.022;0.25;0.063;0.002;-0.029;-0.01;20.0;19.0;-15.9;-16.7;231.8;-6.2;-72.4;5.0;20.89;39.46888;-0.34092;69.4;NaN;;15.708;;0 / 20;11109;2021-10-26 22:12:33:232
-1.022;9.009;2.831;9.309;1.03;2.916;-0.05;0.305;0.115;0.007;-0.036;-0.014;20.0;19.6;-15.9;-16.8;231.9;-6.1;-72.6;5.0;20.89;39.46888;-0.34092;69.4;NaN;;15.708;;0 / 20;11159;2021-10-26 22:12:33:282
-1.11;9.016;2.975;9.251;1.144;3.045;0.044;0.266;0.015;0.007;-0.036;-0.014;20.0;20.0;-15.6;-16.5;230.5;-6.2;-72.9;5.0;22.56;39.46888;-0.34092;69.4;NaN;;15.708;;0 / 20;11209;2021-10-26 22:12:33:332
-1.012;9.069;2.688;9.347;1.025;2.777;-0.058;0.239;0.257;0.007;-0.036;-0.014;20.0;20.0;-15.5;-16.6;231.8;-6.7;-72.5;5.0;22.56;39.46888;-0.34092;69.4;NaN;;15.708;;0 / 20;11260;2021-10-26 22:12:33:383
-1.007;8.937;2.944;9.251;1.02;3.084;-0.091;0.362;-0.006;0.002;0.038;0.003;21.0;20.0;-15.8;-16.6;232.3;-5.9;-71.7;5.0;22.56;39.46888;-0.34092;69.4;NaN;;15.708;;0 / 20;11310;2021-10-26 22:12:33:433
-0.909;9.0;2.819;9.323;0.934;2.902;-0.12;0.335;0.129;-0.002;0.039;0.006;21.0;20.0;-16.0;-17.0;232.2;-5.7;-72.3;5.0;22.56;39.46888;-0.34092;69.4;NaN;;15.708;;0 / 20;11359;2021-10-26 22:12:33:482
-1.0;9.026;2.879;9.29;1.025;2.978;-0.06;0.295;0.047;-0.002;0.018;0.016;21.0;19.6;-15.9;-17.0;232.1;-5.9;-72.4;5.0;22.56;39.46888;-0.34092;69.4;NaN;;15.708;;0 / 20;11409;2021-10-26 22:12:33:532
-1.022;9.031;2.817;9.294;1.063;2.94;-0.038;0.253;0.079;-0.013;0.0;0.023;21.0;19.4;-15.8;-16.5;231.8;-6.3;-72.2;5.0;22.56;39.46888;-0.34092;69.4;NaN;;15.708;;0 / 20;11459;2021-10-26 22:12:33:582
-0.911;8.952;2.81;9.323;0.953;2.892;-0.124;0.334;0.153;-0.007;-0.022;0.009;21.0;19.3;-16.1;-16.0;230.5;-5.9;-72.6;5.0;21.66;39.46888;-0.34092;69.4;NaN;;15.708;;0 / 20;11509;2021-10-26 22:12:33:632
-0.952;9.047;2.831;9.309;0.996;2.916;-0.064;0.211;0.128;-0.004;-0.017;0.008;21.0;19.6;-16.2;-15.9;230.8;-5.7;-72.7;5.0;21.66;39.46888;-0.34092;69.4;NaN;;15.708;;0 / 20;11559;2021-10-26 22:12:33:682
-0.971;8.99;2.817;9.318;0.972;2.902;-0.06;0.28;0.101;0.001;0.073;0.033;21.0;19.7;-16.3;-16.0;230.5;-5.8;-72.5;5.0;21.66;39.46888;-0.34092;69.4;NaN;;15.708;;0 / 20;11609;2021-10-26 22:12:33:732
-0.967;9.014;2.822;9.313;0.986;2.907;-0.027;0.283;0.094;0.005;0.083;0.036;20.0;19.9;-16.5;-16.3;230.6;-5.9;-72.9;5.0;21.66;39.46888;-0.34092;69.4;NaN;;15.708;;0 / 20;11659;2021-10-26 22:12:33:782
-1.022;8.98;2.898;9.285;1.025;2.983;-0.024;0.312;0.131;0.003;0.079;0.034;20.0;20.0;-16.4;-16.0;230.8;-6.0;-72.2;5.0;21.66;39.46888;-0.34092;69.4;NaN;;15.708;;0 / 20;11709;2021-10-26 22:12:33:832
-1.024;8.988;2.872;9.304;1.063;2.907;0.02;0.327;0.073;0.003;0.079;0.034;20.0;20.0;-16.3;-16.1;230.8;-6.3;-72.1;5.0;21.66;39.46888;-0.34092;69.4;NaN;;15.708;;0 / 20;11759;2021-10-26 22:12:33:882
-1.103;9.045;2.814;9.294;1.106;2.926;0.056;0.258;0.087;-0.01;0.084;0.019;20.0;19.7;-16.2;-16.1;230.6;-6.3;-72.5;5.0;21.66;39.46888;-0.34092;69.4;NaN;;15.708;;0 / 20;11809;2021-10-26 22:12:33:932
-1.029;9.012;2.812;9.294;1.049;2.95;-0.007;0.311;0.157;-0.008;0.047;-0.01;20.0;19.6;-16.0;-16.2;230.6;-6.2;-72.6;5.0;22.74;39.46888;-0.34092;69.4;NaN;;15.708;;0 / 20;11860;2021-10-26 22:12:33:983
-1.0;9.012;2.884;9.29;1.03;2.974;-0.03;0.323;0.062;-0.004;0.02;-0.016;20.0;19.6;-15.7;-16.3;230.8;-6.1;-72.3;5.0;22.74;39.46888;-0.34092;69.4;NaN;;15.708;;0 / 20;11909;2021-10-26 22:12:34:032
-1.062;9.024;2.807;9.313;1.025;2.892;-0.025;0.281;0.171;0.004;-0.021;-0.022;21.0;19.4;-15.7;-16.3;230.4;-6.1;-72.6;5.0;22.74;39.46888;-0.34092;69.4;NaN;;15.708;;0 / 20;11959;2021-10-26 22:12:34:082
-0.955;8.973;2.869;9.256;1.044;3.069;-0.071;0.282;0.114;0.012;-0.044;-0.025;21.0;19.6;-15.5;-16.3;232.4;-5.8;-72.6;5.0;22.74;39.46888;-0.34092;69.4;NaN;;15.708;;0 / 20;12010;2021-10-26 22:12:34:133
-1.089;9.081;2.74;9.347;1.077;2.758;0.049;0.241;0.168;0.006;-0.039;-0.018;21.0;19.6;-15.7;-16.3;230.5;-6.8;-72.4;5.0;22.74;39.46888;-0.34092;69.4;NaN;;15.708;;0 / 20;12060;2021-10-26 22:12:34:183
-1.053;8.959;2.932;9.261;1.068;3.055;-0.023;0.323;0.0;0.015;-0.043;-0.02;21.0;19.4;-15.8;-16.3;230.4;-6.1;-72.6;5.0;22.74;39.46888;-0.34092;69.4;NaN;;15.708;;0 / 20;12109;2021-10-26 22:12:34:232
-1.079;9.043;2.846;9.299;1.097;2.921;0.029;0.297;0.052;0.012;-0.047;-0.023;21.0;19.3;-15.7;-16.6;231.7;-6.6;-72.3;5.0;22.74;39.46888;-0.34092;69.4;NaN;;15.708;;0 / 20;12159;2021-10-26 22:12:34:282
-1.081;8.959;2.843;9.285;1.068;2.978;-0.033;0.297;0.035;0.013;-0.061;-0.034;21.0;19.4;-16.0;-16.7;231.7;-6.2;-72.7;5.0;21.61;39.46888;-0.34092;69.4;NaN;;15.708;;0 / 20;12209;2021-10-26 22:12:34:332
-1.103;8.988;2.836;9.294;1.149;2.907;0.03;0.296;0.063;0.013;-0.061;-0.034;21.0;19.4;-15.9;-16.6;231.8;-6.2;-72.2;5.0;21.61;39.46888;-0.34092;69.4;NaN;;15.708;;0 / 20;12260;2021-10-26 22:12:34:383
-1.029;9.028;2.81;9.313;1.053;2.883;-0.002;0.281;0.162;-0.001;-0.062;-0.035;20.0;19.6;-16.3;-16.4;230.5;-6.2;-72.8;5.0;21.61;39.46888;-0.34092;69.4;NaN;;15.708;;0 / 20;12309;2021-10-26 22:12:34:432
-1.048;9.038;2.733;9.294;1.125;2.921;-0.037;0.265;0.192;0.001;-0.034;-0.023;20.0;20.0;-16.5;-16.6;231.5;-6.5;-73.2;5.0;21.61;39.46888;-0.34092;69.4;NaN;;15.708;;0 / 20;12359;2021-10-26 22:12:34:482
-1.053;9.016;2.879;9.313;1.053;2.883;-0.068;0.252;0.149;0.01;-0.014;-0.014;20.0;20.2;-16.6;-16.9;231.7;-6.4;-72.7;5.0;21.61;39.46888;-0.34092;69.4;NaN;;15.708;;0 / 20;12409;2021-10-26 22:12:34:532
-1.026;8.945;2.877;9.29;1.087;2.95;-0.071;0.364;0.071;0.018;0.011;0.001;20.0;20.0;-16.2;-16.8;231.9;-6.1;-72.6;5.0;21.61;39.46888;-0.34092;69.4;NaN;;15.708;;0 / 20;12459;2021-10-26 22:12:34:582
-1.115;9.016;2.762;9.318;1.125;2.844;-0.028;0.256;0.107;0.018;0.011;0.001;20.0;19.4;-15.8;-16.6;231.4;-6.6;-73.0;5.0;20.97;39.46888;-0.34092;69.4;NaN;;15.708;;0 / 20;12509;2021-10-26 22:12:34:632
-1.036;8.983;2.886;9.28;1.087;2.978;-0.01;0.34;0.076;0.004;0.0;0.006;20.0;19.7;-15.7;-16.5;230.5;-6.5;-72.5;5.0;20.97;39.46888;-0.34092;69.4;NaN;;15.708;;0 / 20;12559;2021-10-26 22:12:34:682
-1.115;9.016;2.858;9.299;1.106;2.916;0.004;0.353;-0.046;-0.006;0.002;0.001;20.0;19.7;-15.7;-16.7;232.0;-6.5;-72.1;5.0;20.97;39.46888;-0.34092;69.4;NaN;;15.708;;0 / 20;12609;2021-10-26 22:12:34:732
-1.134;8.99;2.759;9.313;1.168;2.844;-0.052;0.257;0.08;-0.002;-0.024;-0.015;20.0;19.9;-15.6;-16.4;233.4;-6.6;-72.6;5.0;20.97;39.46888;-0.34092;69.4;NaN;;15.708;;0 / 20;12659;2021-10-26 22:12:34:782
-1.113;9.014;2.848;9.299;1.168;2.883;0.065;0.337;0.041;-0.004;-0.011;-0.021;20.0;20.0;-15.5;-16.3;230.3;-6.8;-72.8;5.0;20.97;39.46888;-0.34092;69.4;NaN;;15.708;;0 / 20;12709;2021-10-26 22:12:34:832
-1.12;9.026;2.81;9.28;1.202;2.926;0.094;0.294;0.153;-0.005;0.004;-0.019;20.0;20.2;-15.6;-15.9;230.1;-7.4;-72.9;5.0;20.97;39.46888;-0.34092;69.4;NaN;;15.708;;0 / 20;12760;2021-10-26 22:12:34:883
-1.153;9.028;2.745;9.318;1.164;2.835;0.028;0.32;0.14;-0.005;0.004;-0.019;20.0;20.5;-16.0;-16.0;230.9;-6.9;-71.1;5.0;20.97;39.46888;-0.34092;69.4;NaN;;15.708;;0 / 20;12809;2021-10-26 22:12:34:932
-1.153;9.079;2.762;9.318;1.192;2.816;0.027;0.236;0.182;-0.005;0.004;-0.019;20.0;20.5;-16.0;-16.0;230.7;-6.6;-72.0;5.0;21.76;39.46888;-0.34092;69.4;NaN;;15.708;;0 / 20;12859;2021-10-26 22:12:34:982
-1.125;8.952;2.664;9.328;1.13;2.811;-0.048;0.316;0.265;-0.016;0.119;0.019;20.0;20.2;-16.0;-16.1;230.2;-6.6;-73.2;5.0;21.76;39.46888;-0.34092;69.4;NaN;;15.708;;0 / 20;12909;2021-10-26 22:12:35:032
-1.096;8.99;2.822;9.29;1.13;2.935;-0.094;0.302;0.292;-0.008;0.093;0.021;21.0;20.0;-16.0;-16.4;230.1;-6.7;-73.3;5.0;21.76;39.46888;-0.34092;69.4;NaN;;15.708;;0 / 20;12959;2021-10-26 22:12:35:082
-1.077;9.052;2.644;9.347;1.068;2.772;-0.177;0.222;0.094;0.007;0.054;0.016;21.0;20.0;-15.7;-16.4;230.1;-6.6;-73.5;5.0;21.76;39.46888;-0.34092;69.4;NaN;;15.708;;0 / 20;13009;2021-10-26 22:12:35:132
-1.208;8.966;2.905;9.256;1.221;3.007;-0.038;0.266;0.1;0.022;-0.017;0.006;21.0;20.0;-15.7;-16.6;231.2;-6.8;-73.8;5.0;21.76;39.46888;-0.34092;69.4;NaN;;15.708;;0 / 20;13060;2021-10-26 22:12:35:183
-1.208;9.091;2.637;9.347;1.188;2.715;0.046;0.214;0.283;0.019;-0.061;-0.018;21.0;20.2;-15.4;-16.4;233.3;-7.3;-72.2;5.0;21.76;39.46888;-0.34092;69.4;NaN;;15.708;;0 / 20;13109;2021-10-26 22:12:35:232
-1.199;8.949;2.886;9.261;1.24;2.974;0.032;0.311;0.195;0.024;-0.062;-0.022;21.0;20.3;-15.5;-16.1;231.4;-7.2;-73.9;5.0;23.41;39.46888;-0.34092;69.4;NaN;;15.708;;0 / 20;13159;2021-10-26 22:12:35:282
-1.239;9.033;2.824;9.28;1.259;2.911;0.1;0.299;0.05;0.022;-0.046;-0.052;21.0;20.3;-15.7;-15.7;230.1;-7.7;-72.6;5.0;23.41;39.46888;-0.34092;69.4;NaN;;15.708;;0 / 20;13209;2021-10-26 22:12:35:332
-1.199;8.945;2.676;9.313;1.259;2.796;-0.01;0.285;0.003;0.012;0.016;-0.032;21.0;20.0;-16.0;-15.7;230.4;-7.0;-72.3;5.0;23.41;39.46888;-0.34092;69.4;NaN;;15.708;;0 / 20;13259;2021-10-26 22:12:35:382
-1.038;9.088;2.733;9.304;1.36;2.787;-0.053;0.284;-0.067;-0.015;0.085;0.004;20.0;19.9;-16.5;-16.1;230.3;-6.8;-72.9;5.0;23.41;39.46888;-0.34092;69.4;NaN;;15.708;;0 / 20;13309;2021-10-26 22:12:35:432
-1.11;9.062;2.649;9.352;1.164;2.72;-0.059;0.228;0.111;-0.012;0.076;0.007;20.0;19.7;-16.4;-16.0;228.2;-8.0;-73.3;5.0;23.41;39.46888;-0.34092;69.4;NaN;;15.708;;0 / 20;13359;2021-10-26 22:12:35:482
-1.091;9.002;2.647;9.357;1.149;2.705;-0.087;0.311;0.273;-0.012;0.076;0.007;20.0;20.2;-16.0;-16.2;230.0;-6.8;-73.6;5.0;23.41;39.46888;-0.34092;69.4;NaN;;15.708;;0 / 20;13409;2021-10-26 22:12:35:532
-0.816;9.002;4.179;9.318;1.154;2.825;-0.003;0.271;0.176;0.015;0.01;0.016;20.0;20.2;-15.8;-16.3;230.2;-6.8;-73.1;5.0;41.24;39.46888;-0.34092;69.4;NaN;;15.708;;0 / 20;13459;2021-10-26 22:12:35:582
-1.239;8.983;2.309;9.38;1.24;2.576;0.125;0.492;1.121;0.025;-0.028;-0.005;20.0;20.0;-15.8;-16.3;227.4;-7.9;-78.5;5.0;41.24;39.46888;-0.34092;69.4;NaN;;15.708;;0 / 20;13509;2021-10-26 22:12:35:632
-1.192;9.064;2.855;9.275;1.288;2.911;-0.023;0.212;0.326;0.049;-0.06;-0.02;20.0;20.0;-16.3;-16.3;230.1;-7.3;-72.9;5.0;41.24;39.46888;-0.34092;69.4;NaN;;15.708;;0 / 20;13559;2021-10-26 22:12:35:682
-1.156;9.107;2.795;9.361;1.264;2.643;0.039;0.324;0.163;0.04;-0.052;-0.044;20.0;19.9;-16.2;-15.8;229.5;-7.4;-74.2;5.0;41.24;39.46888;-0.34092;69.4;NaN;;15.708;;0 / 20;13609;2021-10-26 22:12:35:732
-1.35;8.887;2.276;9.294;1.307;2.84;-0.04;0.177;-0.098;0.046;-0.05;-0.041;21.0;20.0;-16.3;-16.0;230.5;-7.3;-71.8;5.0;41.24;39.46888;-0.34092;69.4;NaN;;15.708;;0 / 20;13659;2021-10-26 22:12:35:782
-1.18;9.059;2.714;9.361;1.211;2.662;0.012;0.223;0.247;0.039;-0.028;-0.033;21.0;20.0;-15.7;-16.0;229.6;-7.6;-73.8;5.0;41.24;39.46888;-0.34092;69.4;NaN;;15.708;;0 / 20;13709;2021-10-26 22:12:35:832
-1.163;9.035;2.934;9.203;1.207;3.165;0.041;0.282;0.201;0.036;-0.012;-0.022;21.0;20.3;-15.4;-16.0;229.8;-7.2;-73.8;5.0;41.24;39.46888;-0.34092;69.4;NaN;;15.708;;0 / 20;13759;2021-10-26 22:12:35:882
-1.129;8.988;2.489;9.385;1.178;2.595;-0.103;0.353;0.268;0.027;-0.007;-0.017;21.0;20.5;-15.3;-15.8;231.7;-7.1;-73.5;5.0;30.98;39.46888;-0.34092;69.4;NaN;;15.708;;0 / 20;13809;2021-10-26 22:12:35:932
-1.196;9.024;2.752;9.323;1.226;2.787;-0.159;0.273;0.138;0.021;-0.001;-0.008;21.0;20.5;-15.5;-15.6;229.7;-7.1;-74.0;5.0;30.98;39.46888;-0.34092;69.4;NaN;;15.708;;0 / 20;13860;2021-10-26 22:12:35:983
-1.232;9.074;2.587;9.371;1.25;2.614;-0.005;0.274;0.206;-0.021;0.061;0.026;21.0;20.0;-15.7;-15.4;228.6;-7.5;-73.1;5.0;30.98;39.46888;-0.34092;69.4;NaN;;15.708;;0 / 20;13909;2021-10-26 22:12:36:032
-1.194;9.136;2.606;9.371;1.221;2.619;-0.043;0.219;0.235;-0.017;0.068;0.029;21.0;19.7;-15.7;-15.3;228.1;-7.3;-74.4;5.0;30.98;39.46888;-0.34092;69.4;NaN;;15.708;;0 / 20;13959;2021-10-26 22:12:36:082
-1.144;9.045;2.92;9.328;1.149;2.801;-0.109;0.26;-0.213;-0.016;0.094;0.034;21.0;20.2;-15.9;-15.3;228.8;-6.7;-73.3;5.0;30.98;39.46888;-0.34092;69.4;NaN;;15.708;;0 / 20;14009;2021-10-26 22:12:36:132
-1.103;9.081;2.41;9.414;1.116;2.514;-0.146;0.274;0.237;-0.007;0.066;0.028;21.0;20.2;-16.2;-15.4;228.3;-6.5;-74.5;5.0;30.98;39.46888;-0.34092;69.4;NaN;;15.708;;0 / 20;14059;2021-10-26 22:12:36:182
-0.993;9.019;2.556;9.376;1.077;2.677;-0.127;0.316;0.234;-0.001;0.065;0.045;21.0;20.3;-16.8;-15.3;226.7;-6.6;-74.6;5.0;20.32;39.46888;-0.34092;69.4;NaN;;15.708;;0 / 20;14109;2021-10-26 22:12:36:232
-1.11;9.062;2.537;9.376;1.164;2.624;-0.135;0.374;0.054;-0.005;0.075;0.064;21.0;20.3;-16.8;-15.4;228.3;-6.3;-71.0;5.0;20.32;39.46888;-0.34092;69.4;NaN;;15.708;;0 / 20;14159;2021-10-26 22:12:36:282
-1.115;9.0;2.644;9.357;1.125;2.705;-0.118;0.282;0.051;-0.006;0.074;0.063;21.0;20.5;-16.3;-15.6;230.0;-6.6;-73.9;5.0;20.32;39.46888;-0.34092;69.4;NaN;;15.708;;0 / 20;14209;2021-10-26 22:12:36:332
-1.285;9.014;2.652;9.347;1.312;2.653;0.051;0.352;0.025;-0.013;0.059;0.043;21.0;19.9;-16.2;-15.5;230.2;-7.4;-72.5;5.0;20.32;39.46888;-0.34092;69.4;NaN;;15.708;;0 / 20;14259;2021-10-26 22:12:36:382
-1.28;9.091;2.46;9.347;1.283;2.677;0.1;0.257;0.219;-0.002;0.004;0.008;19.0;19.9;-16.0;-15.8;229.6;-7.3;-74.1;5.0;20.32;39.46888;-0.34092;69.4;NaN;;15.708;;0 / 20;14309;2021-10-26 22:12:36:432
-1.352;8.942;2.7;9.309;1.384;2.768;0.201;0.419;-0.08;-0.001;-0.012;-0.013;19.0;19.6;-16.4;-15.9;229.6;-7.5;-74.0;5.0;20.32;39.46888;-0.34092;69.4;NaN;;15.708;;0 / 20;14359;2021-10-26 22:12:36:482
-1.141;9.016;2.554;9.38;1.159;2.624;-0.039;0.239;0.249;0.01;-0.091;-0.082;19.0;19.9;-16.0;-16.0;229.7;-6.8;-74.4;5.0;20.32;39.46888;-0.34092;69.4;NaN;;15.708;;0 / 20;14409;2021-10-26 22:12:36:532
-1.204;8.992;2.915;9.251;1.216;3.021;-0.052;0.371;-0.296;0.012;-0.099;-0.069;19.0;20.0;-15.9;-16.0;230.7;-7.2;-71.4;5.0;21.98;39.46888;-0.34092;69.4;NaN;;15.708;;0 / 20;14459;2021-10-26 22:12:36:582
-0.974;8.985;2.752;9.323;1.077;2.854;-0.23;0.342;-0.008;0.012;-0.099;-0.069;19.0;20.2;-15.7;-16.1;230.0;-7.3;-73.1;5.0;21.98;39.46888;-0.34092;69.4;NaN;;15.708;;0 / 20;14509;2021-10-26 22:12:36:632
-1.146;8.983;2.848;9.29;1.192;2.902;-0.092;0.341;-0.059;-0.005;-0.067;-0.007;19.0;20.2;-15.7;-16.3;230.4;-6.3;-73.0;5.0;21.98;39.46888;-0.34092;69.4;NaN;;15.708;;0 / 20;14559;2021-10-26 22:12:36:682
-1.29;9.047;2.616;9.333;1.274;2.734;-0.015;0.243;0.255;-0.039;-0.027;0.019;19.0;20.0;-15.7;-16.3;229.7;-7.5;-73.7;5.0;21.98;39.46888;-0.34092;69.4;NaN;;15.708;;0 / 20;14609;2021-10-26 22:12:36:732
-1.201;9.062;2.51;9.395;1.231;2.528;-0.044;0.335;0.162;-0.025;-0.03;0.013;21.0;19.9;-16.0;-16.2;230.3;-7.0;-72.7;5.0;21.98;39.46888;-0.34092;69.4;NaN;;15.708;;0 / 20;14659;2021-10-26 22:12:36:782
-1.194;9.014;2.728;9.29;1.245;2.887;-0.039;0.292;0.006;-0.006;-0.037;-0.003;21.0;19.9;-16.1;-16.1;229.5;-7.4;-74.2;5.0;21.98;39.46888;-0.34092;69.4;NaN;;15.708;;0 / 20;14710;2021-10-26 22:12:36:833
-1.235;9.155;2.668;9.371;1.255;2.61;0.071;0.169;0.13;0.011;-0.04;-0.017;21.0;19.9;-16.2;-16.2;229.5;-8.5;-73.4;5.0;21.34;39.46888;-0.34092;69.4;NaN;;15.708;;0 / 20;14759;2021-10-26 22:12:36:882
-1.192;9.033;2.494;9.385;1.245;2.557;-0.015;0.266;0.367;0.035;-0.051;-0.028;21.0;20.0;-15.8;-15.9;229.2;-7.2;-75.0;5.0;21.34;39.46888;-0.34092;69.4;NaN;;15.708;;0 / 20;14809;2021-10-26 22:12:36:932
-1.249;9.117;2.683;9.333;1.302;2.715;0.016;0.203;-0.073;0.03;-0.036;-0.029;21.0;19.9;-15.6;-15.7;230.2;-7.3;-72.7;5.0;21.34;39.46888;-0.34092;69.4;NaN;;15.708;;0 / 20;14859;2021-10-26 22:12:36:982
-1.022;9.079;2.594;9.328;1.015;2.849;-0.253;0.274;0.021;0.028;-0.024;-0.029;21.0;19.6;-15.7;-15.3;227.7;-7.6;-75.1;5.0;21.34;39.46888;-0.34092;69.4;NaN;;15.708;;0 / 20;14909;2021-10-26 22:12:37:032
-1.098;9.04;2.666;9.333;1.135;2.787;-0.093;0.371;0.245;0.024;0.014;-0.01;19.0;20.0;-15.6;-15.4;229.2;-5.9;-73.0;5.0;21.34;39.46888;-0.34092;69.4;NaN;;15.708;;0 / 20;14960;2021-10-26 22:12:37:083
-1.163;9.088;2.379;9.409;1.168;2.509;-0.089;0.251;0.32;0.024;0.014;-0.01;19.0;20.2;-15.8;-15.4;227.6;-7.0;-75.7;5.0;21.34;39.46888;-0.34092;69.4;NaN;;15.708;;0 / 20;15009;2021-10-26 22:12:37:132
-1.077;9.112;2.609;9.371;1.12;2.667;-0.101;0.267;0.14;-0.003;0.078;0.067;19.0;20.2;-16.1;-15.4;228.9;-6.4;-73.3;5.0;21.34;39.46888;-0.34092;69.4;NaN;;15.708;;0 / 20;15059;2021-10-26 22:12:37:182
-1.06;9.004;2.714;9.323;1.116;2.825;-0.047;0.256;0.165;-0.002;0.069;0.053;19.0;19.9;-16.2;-15.3;228.7;-6.6;-73.6;5.0;21.14;39.46888;-0.34092;69.4;NaN;;15.708;;0 / 20;15110;2021-10-26 22:12:37:233
-1.115;9.107;2.659;9.366;1.135;2.672;-0.1;0.204;0.094;-0.001;0.061;0.043;19.0;20.0;-16.2;-15.6;228.5;-6.6;-73.9;5.0;21.14;39.46888;-0.34092;69.4;NaN;;15.708;;0 / 20;15159;2021-10-26 22:12:37:282
-1.223;9.105;2.477;9.342;1.288;2.686;0.031;0.288;0.023;-0.001;0.056;0.037;19.0;20.0;-16.3;-15.6;230.0;-7.1;-73.2;5.0;21.14;39.46888;-0.34092;69.4;NaN;;15.708;;0 / 20;15209;2021-10-26 22:12:37:332
-1.022;9.038;2.489;9.404;1.02;2.591;-0.084;0.303;0.333;0.004;0.026;0.016;19.0;20.0;-16.6;-15.8;228.1;-6.4;-74.8;5.0;21.14;39.46888;-0.34092;69.4;NaN;;15.708;;0 / 20;15259;2021-10-26 22:12:37:382
-1.098;9.035;2.944;9.27;1.135;2.993;-0.042;0.346;-0.175;0.005;0.001;0.0;17.0;20.0;-16.2;-15.5;230.3;-7.0;-72.7;5.0;21.14;39.46888;-0.34092;69.4;NaN;;15.708;;0 / 20;15309;2021-10-26 22:12:37:432
-1.156;9.016;2.324;9.428;1.168;2.423;-0.083;0.332;0.273;0.002;-0.002;-0.002;17.0;20.2;-16.4;-15.6;230.6;-6.6;-72.1;5.0;21.14;39.46888;-0.34092;69.4;NaN;;15.708;;0 / 20;15359;2021-10-26 22:12:37:482
-1.18;8.98;2.618;9.352;1.192;2.705;0.026;0.373;0.083;-0.009;0.023;0.007;17.0;20.5;-16.3;-15.4;228.5;-7.2;-73.5;5.0;22.06;39.46888;-0.34092;69.4;NaN;;15.708;;0 / 20;15409;2021-10-26 22:12:37:532
-1.215;9.095;2.51;9.371;1.293;2.581;0.039;0.249;0.075;-0.009;0.023;0.007;17.0;20.3;-16.2;-15.7;230.1;-6.9;-73.3;5.0;22.06;39.46888;-0.34092;69.4;NaN;;15.708;;0 / 20;15459;2021-10-26 22:12:37:582
-1.153;9.012;2.436;9.409;1.216;2.49;0.01;0.288;0.337;-0.009;0.023;0.007;17.0;20.2;-16.1;-16.0;229.9;-6.5;-74.1;5.0;22.06;39.46888;-0.34092;69.4;NaN;;15.708;;0 / 20;15509;2021-10-26 22:12:37:632
-1.148;9.086;2.546;9.371;1.164;2.653;-0.022;0.261;0.212;-0.009;0.023;0.007;17.0;20.0;-16.3;-16.0;229.3;-7.1;-74.9;5.0;22.06;39.46888;-0.34092;69.4;NaN;;15.708;;0 / 20;15559;2021-10-26 22:12:37:682
-1.113;9.124;2.85;9.328;1.12;2.82;0.013;0.263;-0.056;0.039;-0.059;-0.034;17.0;20.2;-16.7;-15.4;227.4;-6.7;-72.8;5.0;22.06;39.46888;-0.34092;69.4;NaN;;15.708;;0 / 20;15609;2021-10-26 22:12:37:732
-1.089;9.107;2.719;9.342;1.087;2.777;-0.103;0.269;0.031;0.049;-0.057;-0.028;17.0;20.5;-16.6;-15.4;226.7;-6.8;-74.4;5.0;22.06;39.46888;-0.34092;69.4;NaN;;15.708;;0 / 20;15659;2021-10-26 22:12:37:782
-1.141;9.138;2.568;9.38;1.144;2.619;-0.012;0.299;0.115;0.02;-0.019;-0.014;17.0;20.3;-16.3;-15.4;229.7;-7.2;-73.9;5.0;22.06;39.46888;-0.34092;69.4;NaN;;15.708;;0 / 20;15709;2021-10-26 22:12:37:832
-1.194;9.071;2.551;9.371;1.221;2.624;0.014;0.259;0.18;0.007;0.02;0.005;17.0;19.9;-16.3;-15.5;228.3;-6.7;-74.4;5.0;30.85;39.46888;-0.34092;69.4;NaN;;15.708;;0 / 20;15759;2021-10-26 22:12:37:882
-1.158;9.062;2.501;9.385;1.178;2.586;0.014;0.314;0.082;0.002;0.033;0.008;17.0;20.3;-16.1;-15.5;229.3;-7.4;-74.7;5.0;30.85;39.46888;-0.34092;69.4;NaN;;15.708;;0 / 20;15809;2021-10-26 22:12:37:932
-1.254;9.052;2.802;9.304;1.274;2.825;0.012;0.328;0.023;0.005;0.019;0.002;17.0;20.3;-16.0;-15.4;228.1;-7.5;-74.1;5.0;30.85;39.46888;-0.34092;69.4;NaN;;15.708;;0 / 20;15859;2021-10-26 22:12:37:982
-1.146;9.088;2.513;9.385;1.231;2.571;-0.049;0.274;0.155;0.005;0.013;-0.009;17.0;20.5;-15.9;-15.1;228.6;-7.0;-73.9;5.0;30.85;39.46888;-0.34092;69.4;NaN;;15.708;;0 / 20;15909;2021-10-26 22:12:38:032
-1.187;9.146;2.745;9.328;1.231;2.763;-0.016;0.165;-0.132;0.003;0.016;-0.016;17.0;20.5;-16.0;-15.1;227.8;-8.0;-74.9;5.0;30.85;39.46888;-0.34092;69.4;NaN;;15.708;;0 / 20;15959;2021-10-26 22:12:38:082
-1.077;9.047;2.489;9.4;1.116;2.557;-0.038;0.3;0.329;0.003;0.016;-0.016;17.0;20.3;-16.5;-14.8;228.2;-6.5;-74.8;5.0;30.85;39.46888;-0.34092;69.4;NaN;;15.708;;0 / 20;16009;2021-10-26 22:12:38:132
-1.103;9.057;2.788;9.313;1.125;2.854;-0.125;0.328;-0.097;0.003;0.016;-0.016;17.0;20.2;-16.8;-15.0;227.3;-6.6;-73.1;5.0;22.74;39.46888;-0.34092;69.4;NaN;;15.708;;0 / 20;16059;2021-10-26 22:12:38:182
-1.105;9.016;2.532;9.366;1.13;2.682;-0.123;0.329;0.078;0.003;0.016;-0.016;17.0;20.3;-17.2;-14.8;227.2;-6.3;-73.6;5.0;22.74;39.46888;-0.34092;69.4;NaN;;15.708;;0 / 20;16109;2021-10-26 22:12:38:232
-1.091;9.079;2.714;9.342;1.12;2.758;-0.1;0.276;0.064;-0.012;0.088;0.055;17.0;20.0;-16.9;-15.0;226.3;-7.3;-75.0;5.0;22.74;39.46888;-0.34092;69.4;NaN;;15.708;;0 / 20;16159;2021-10-26 22:12:38:282
-1.271;9.028;2.688;9.342;1.255;2.705;0.038;0.317;0.04;-0.018;0.077;0.049;17.0;19.9;-16.7;-15.2;227.0;-7.3;-73.3;5.0;22.74;39.46888;-0.34092;69.4;NaN;;15.708;;0 / 20;16209;2021-10-26 22:12:38:332
-1.043;9.052;2.441;9.409;1.063;2.552;-0.106;0.317;0.276;-0.013;0.031;0.025;17.0;19.6;-16.8;-15.3;226.6;-6.9;-74.5;5.0;22.74;39.46888;-0.34092;69.4;NaN;;15.708;;0 / 20;16259;2021-10-26 22:12:38:382
-1.125;9.136;2.814;9.304;1.13;2.897;-0.032;0.29;0.129;-0.002;-0.024;0.006;17.0;19.6;-16.6;-15.3;226.8;-6.6;-74.3;5.0;22.74;39.46888;-0.34092;69.4;NaN;;15.708;;0 / 20;16309;2021-10-26 22:12:38:432
-1.079;9.103;2.494;9.409;1.087;2.543;-0.039;0.317;0.091;0.004;-0.067;-0.009;17.0;19.9;-16.6;-15.4;227.2;-6.4;-73.6;5.0;22.74;39.46888;-0.34092;69.4;NaN;;15.708;;0 / 20;16359;2021-10-26 22:12:38:482
-1.136;9.062;2.408;9.404;1.231;2.495;-0.076;0.263;0.077;0.016;-0.065;-0.009;17.0;20.3;-16.3;-15.1;227.8;-7.2;-75.1;5.0;19.55;39.46888;-0.34092;69.4;NaN;;15.708;;0 / 20;16409;2021-10-26 22:12:38:532
-1.163;9.057;2.594;9.357;1.168;2.696;-0.003;0.347;0.099;0.014;-0.052;-0.008;17.0;20.3;-16.2;-15.4;228.4;-6.9;-74.0;5.0;19.55;39.46888;-0.34092;69.4;NaN;;15.708;;0 / 20;16459;2021-10-26 22:12:38:582
-1.211;9.119;2.369;9.4;1.211;2.528;0.011;0.267;0.094;0.017;-0.04;-0.006;17.0;20.6;-16.1;-15.4;228.4;-7.1;-73.8;5.0;19.55;39.46888;-0.34092;69.4;NaN;;15.708;;0 / 20;16509;2021-10-26 22:12:38:632
-1.175;9.047;2.695;9.347;1.24;2.705;-0.024;0.323;0.001;0.017;-0.04;-0.006;17.0;20.5;-16.0;-15.7;228.9;-7.3;-75.7;5.0;19.55;39.46888;-0.34092;69.4;NaN;;15.708;;0 / 20;16559;2021-10-26 22:12:38:682
-1.163;9.083;2.451;9.39;1.197;2.562;0.022;0.242;0.24;0.017;-0.04;-0.006;17.0;20.2;-16.4;-15.4;228.0;-7.0;-74.7;5.0;19.55;39.46888;-0.34092;69.4;NaN;;15.708;;0 / 20;16609;2021-10-26 22:12:38:732
-1.201;9.057;2.546;9.371;1.211;2.634;-0.005;0.31;0.098;0.013;-0.021;-0.029;17.0;20.0;-16.3;-15.3;227.8;-7.6;-74.7;5.0;19.55;39.46888;-0.34092;69.4;NaN;;15.708;;0 / 20;16659;2021-10-26 22:12:38:782
-1.242;9.095;2.671;9.342;1.245;2.715;0.002;0.337;0.219;0.006;-0.025;-0.024;17.0;20.2;-16.3;-15.3;228.0;-6.8;-75.0;5.0;23.06;39.46888;-0.34092;69.4;NaN;;15.708;;0 / 20;16709;2021-10-26 22:12:38:832
-1.127;9.047;2.247;9.357;1.211;2.682;-0.008;0.295;0.014;0.001;-0.021;-0.023;17.0;20.6;-16.0;-15.3;228.3;-7.6;-73.7;5.0;23.06;39.46888;-0.34092;69.4;NaN;;15.708;;0 / 20;16759;2021-10-26 22:12:38:882
-1.184;9.119;2.534;9.371;1.245;2.605;-0.067;0.309;0.326;0.005;0.001;-0.01;17.0;20.8;-15.8;-15.1;228.2;-6.7;-75.2;5.0;23.06;39.46888;-0.34092;69.4;NaN;;15.708;;0 / 20;16809;2021-10-26 22:12:38:932
-1.204;9.04;2.637;9.337;1.235;2.739;-0.019;0.295;-0.1;0.005;0.021;-0.004;17.0;20.8;-16.0;-15.1;229.0;-7.2;-72.9;5.0;23.06;39.46888;-0.34092;69.4;NaN;;15.708;;0 / 20;16859;2021-10-26 22:12:38:982
-1.129;9.074;2.491;9.352;1.168;2.705;-0.103;0.269;0.316;0.025;0.041;0.005;17.0;20.5;-16.4;-15.1;227.8;-6.8;-75.7;5.0;23.06;39.46888;-0.34092;69.4;NaN;;15.708;;0 / 20;16910;2021-10-26 22:12:39:033
-1.163;9.098;2.486;9.385;1.197;2.591;0.003;0.381;0.196;0.004;0.055;0.013;17.0;20.3;-16.4;-15.1;227.3;-6.8;-73.1;5.0;23.06;39.46888;-0.34092;69.4;NaN;;15.708;;0 / 20;16959;2021-10-26 22:12:39:082
-1.136;9.098;2.484;9.376;1.231;2.6;-0.078;0.219;-0.052;0.0;0.044;0.018;17.0;20.3;-16.8;-15.3;226.5;-7.2;-74.5;5.0;22.29;39.46888;-0.34092;69.4;NaN;;15.708;;0 / 20;17009;2021-10-26 22:12:39:132
-1.139;9.119;2.53;9.385;1.192;2.591;-0.114;0.315;0.205;0.0;0.044;0.018;17.0;20.6;-16.3;-15.2;227.9;-6.9;-75.5;5.0;22.29;39.46888;-0.34092;69.4;NaN;;15.708;;0 / 20;17059;2021-10-26 22:12:39:182
-1.148;9.047;2.542;9.376;1.173;2.629;-0.055;0.289;-0.001;0.0;0.044;0.018;17.0;20.6;-16.8;-15.6;228.4;-7.2;-74.1;5.0;22.29;39.46888;-0.34092;69.4;NaN;;15.708;;0 / 20;17109;2021-10-26 22:12:39:232
-1.184;9.098;2.441;9.39;1.183;2.567;-0.032;0.304;0.134;0.0;0.044;0.018;17.0;20.6;-16.8;-15.1;226.8;-6.5;-74.3;5.0;22.29;39.46888;-0.34092;69.4;NaN;;15.708;;0 / 20;17160;2021-10-26 22:12:39:283
-1.182;9.095;2.53;9.376;1.211;2.605;-0.053;0.346;-0.018;0.003;0.003;0.016;17.0;20.6;-17.2;-14.9;226.8;-7.1;-74.5;5.0;22.29;39.46888;-0.34092;69.4;NaN;;15.708;;0 / 20;17209;2021-10-26 22:12:39:332
-1.136;9.119;2.41;9.4;1.211;2.519;-0.02;0.279;0.226;0.0;0.018;0.014;17.0;20.5;-16.6;-14.9;226.4;-7.1;-75.3;5.0;22.29;39.46888;-0.34092;69.4;NaN;;15.708;;0 / 20;17259;2021-10-26 22:12:39:382
-1.194;9.114;2.463;9.38;1.25;2.567;0.022;0.252;-0.006;-0.001;0.034;0.01;17.0;20.6;-16.3;-14.5;228.2;-7.2;-74.6;5.0;22.29;39.46888;-0.34092;69.4;NaN;;15.708;;0 / 20;17309;2021-10-26 22:12:39:432
-1.18;9.093;2.585;9.376;1.207;2.614;-0.011;0.321;0.114;-0.003;0.083;0.009;17.0;20.5;-16.3;-14.5;226.6;-7.1;-74.9;5.0;22.87;39.46888;-0.34092;69.4;NaN;;15.708;;0 / 20;17359;2021-10-26 22:12:39:482
-1.196;9.095;2.525;9.361;1.255;2.634;-0.005;0.295;0.064;0.005;0.08;0.009;17.0;20.5;-16.6;-14.4;224.9;-7.2;-74.8;5.0;22.87;39.46888;-0.34092;69.4;NaN;;15.708;;0 / 20;17410;2021-10-26 22:12:39:533
-1.187;9.124;2.439;9.409;1.24;2.466;-0.009;0.296;0.154;0.003;0.077;0.01;17.0;20.3;-16.9;-14.3;224.8;-7.3;-75.0;5.0;22.87;39.46888;-0.34092;69.4;NaN;;15.708;;0 / 20;17459;2021-10-26 22:12:39:582
-1.182;9.071;2.597;9.323;1.25;2.777;-0.027;0.351;0.04;0.002;0.049;0.006;17.0;19.9;-16.7;-14.7;227.0;-7.0;-73.7;5.0;22.87;39.46888;-0.34092;69.4;NaN;;15.708;;0 / 20;17509;2021-10-26 22:12:39:632
-1.189;9.11;2.285;9.438;1.255;2.356;0.025;0.256;0.244;-0.004;0.022;0.0;17.0;19.9;-16.4;-14.7;228.5;-7.3;-73.4;5.0;22.87;39.46888;-0.34092;69.4;NaN;;15.708;;0 / 20;17559;2021-10-26 22:12:39:682
-1.117;9.047;2.463;9.395;1.178;2.552;-0.113;0.283;0.134;-0.004;0.022;0.0;17.0;19.7;-16.1;-15.1;228.0;-6.9;-74.8;5.0;22.87;39.46888;-0.34092;69.4;NaN;;15.708;;0 / 20;17609;2021-10-26 22:12:39:732
-1.158;8.973;2.575;9.376;1.283;2.581;0.023;0.323;0.094;-0.004;0.022;0.0;16.0;20.0;-16.0;-14.8;228.5;-7.0;-73.7;5.0;22.87;39.46888;-0.34092;69.4;NaN;;15.708;;0 / 20;17659;2021-10-26 22:12:39:782
-1.136;9.091;2.36;9.409;1.226;2.476;-0.03;0.282;0.149;-0.004;0.022;0.0;16.0;20.2;-16.0;-14.9;227.8;-7.3;-75.1;5.0;22.87;39.46888;-0.34092;69.4;NaN;;15.708;;0 / 20;17710;2021-10-26 22:12:39:833
-1.239;9.117;2.695;9.347;1.259;2.691;0.011;0.31;-0.014;0.008;-0.076;-0.022;16.0;20.6;-16.2;-15.3;227.7;-7.2;-75.3;5.0;22.87;39.46888;-0.34092;69.4;NaN;;15.708;;0 / 20;17759;2021-10-26 22:12:39:882
-1.213;9.105;2.477;9.395;1.192;2.547;-0.059;0.282;0.07;0.003;-0.049;-0.016;16.0;20.5;-16.5;-15.4;227.8;-7.4;-75.0;5.0;22.87;39.46888;-0.34092;69.4;NaN;;15.708;;0 / 20;17809;2021-10-26 22:12:39:932
-1.247;9.028;2.369;9.404;1.288;2.476;-0.007;0.376;0.262;0.003;-0.039;-0.019;16.0;20.3;-16.9;-15.1;225.9;-7.5;-75.6;5.0;22.87;39.46888;-0.34092;69.4;NaN;;15.708;;0 / 20;17859;2021-10-26 22:12:39:982
-1.199;9.143;2.427;9.419;1.226;2.437;-0.054;0.28;0.222;0.0;-0.028;-0.019;16.0;19.9;-16.6;-14.5;226.6;-7.3;-74.3;5.0;22.87;39.46888;-0.34092;69.4;NaN;;15.708;;0 / 20;17909;2021-10-26 22:12:40:032
-1.204;9.098;2.372;9.4;1.168;2.552;-0.069;0.307;0.057;0.008;-0.013;-0.007;17.0;20.2;-16.6;-14.2;226.3;-7.3;-74.9;5.0;22.87;39.46888;-0.34092;69.4;NaN;;15.708;;0 / 20;17959;2021-10-26 22:12:40:082
-1.16;9.071;2.503;9.38;1.235;2.586;-0.029;0.282;0.105;0.017;0.017;0.003;17.0;20.9;-16.1;-14.8;228.2;-7.2;-74.6;5.0;20.29;39.46888;-0.34092;69.4;NaN;;15.708;;0 / 20;18010;2021-10-26 22:12:40:133
-1.218;9.081;2.491;9.39;1.183;2.571;-0.083;0.312;0.163;0.014;0.05;0.017;17.0;20.8;-16.3;-15.0;228.1;-7.0;-75.1;5.0;20.29;39.46888;-0.34092;69.4;NaN;;15.708;;0 / 20;18059;2021-10-26 22:12:40:182
-1.201;9.031;2.513;9.357;1.226;2.677;-0.067;0.314;-0.047;0.012;0.045;0.018;17.0;20.9;-16.4;-15.1;226.6;-7.1;-74.8;5.0;20.29;39.46888;-0.34092;69.4;NaN;;15.708;;0 / 20;18109;2021-10-26 22:12:40:232
-1.22;9.069;2.458;9.4;1.063;2.591;0.016;0.342;0.099;0.012;0.045;0.018;17.0;20.6;-16.6;-14.8;227.9;-7.7;-74.8;5.0;20.29;39.46888;-0.34092;69.4;NaN;;15.708;;0 / 20;18159;2021-10-26 22:12:40:282
-1.22;9.114;2.467;9.376;1.317;2.552;-0.008;0.302;0.085;0.012;0.045;0.018;17.0;21.1;-16.7;-14.5;226.4;-7.7;-74.8;5.0;20.29;39.46888;-0.34092;69.4;NaN;;15.708;;0 / 20;18210;2021-10-26 22:12:40:333
-1.244;9.047;2.577;9.414;1.274;2.437;0.007;0.355;0.064;-0.021;0.054;0.019;17.0;20.9;-16.4;-14.5;228.7;-7.2;-73.5;5.0;20.29;39.46888;-0.34092;69.4;NaN;;15.708;;0 / 20;18259;2021-10-26 22:12:40:382
-1.089;9.213;2.362;9.414;1.245;2.452;-0.034;0.313;0.066;-0.009;0.048;0.005;15.0;20.9;-16.4;-14.9;228.3;-7.0;-74.5;5.0;20.88;39.46889;-0.34092;69.4;NaN;;13.846;;0 / 20;18309;2021-10-26 22:12:40:432
-1.479;9.105;2.616;9.337;1.408;2.653;-0.003;0.162;0.067;-0.004;0.034;-0.015;15.0;20.8;-16.1;-15.1;227.9;-7.0;-75.4;5.0;20.88;39.46889;-0.34092;69.4;NaN;;13.846;;0 / 20;18359;2021-10-26 22:12:40:482
-1.311;9.033;2.556;9.275;1.202;2.945;0.084;0.406;-0.287;-0.002;0.011;-0.021;15.0;20.5;-16.0;-15.1;229.3;-7.0;-72.4;5.0;20.88;39.46889;-0.34092;69.4;NaN;;13.846;;0 / 20;18409;2021-10-26 22:12:40:532
-1.211;9.071;2.719;9.342;1.298;2.691;0.054;0.444;0.014;0.0;-0.019;-0.039;15.0;20.5;-16.1;-14.8;226.9;-8.3;-76.1;5.0;20.88;39.46889;-0.34092;69.4;NaN;;13.846;;0 / 20;18459;2021-10-26 22:12:40:582
-1.34;8.794;2.362;9.347;1.312;2.667;0.131;0.617;0.403;-0.013;-0.047;-0.043;15.0;20.6;-16.0;-14.8;229.0;-7.6;-72.1;5.0;20.88;39.46889;-0.34092;69.4;NaN;;13.846;;0 / 20;18509;2021-10-26 22:12:40:632
-1.294;8.99;2.776;9.266;1.36;2.907;0.037;0.34;-0.118;-0.023;-0.037;-0.043;15.0;20.8;-16.0;-15.0;228.3;-7.7;-74.1;5.0;20.88;39.46889;-0.34092;69.4;NaN;;13.846;;0 / 20;18559;2021-10-26 22:12:40:682
-1.297;9.067;2.664;9.242;1.274;3.031;-0.002;0.497;-0.348;-0.078;0.017;-0.023;15.0;20.9;-15.7;-14.8;229.4;-7.5;-71.8;5.0;20.88;39.46889;-0.34092;69.4;NaN;;13.846;;0 / 20;18609;2021-10-26 22:12:40:732
-1.335;8.961;2.4;9.39;1.432;2.433;0.05;0.417;0.33;-0.078;0.017;-0.023;15.0;20.9;-16.0;-14.8;226.4;-8.8;-76.9;5.0;25.92;39.46889;-0.34092;69.4;NaN;;13.846;;0 / 20;18659;2021-10-26 22:12:40:782