sep=;
ACCELEROMETER X (m/s²);ACCELEROMETER Y (m/s²);ACCELEROMETER Z (m/s²);GRAVITY X (m/s²);GRAVITY Y (m/s²);GRAVITY Z (m/s²);LINEAR ACCELERATION X (m/s²);LINEAR ACCELERATION Y (m/s²);LINEAR ACCELERATION Z (m/s²);GYROSCOPE X (rad/s);GYROSCOPE Y (rad/s);GYROSCOPE Z (rad/s);LIGHT (lux);MAGNETIC FIELD X (μT);MAGNETIC FIELD Y (μT);MAGNETIC FIELD Z (μT);ORIENTATION Z (azimuth °);ORIENTATION X (pitch °);ORIENTATION Y (roll °);PROXIMITY (m);SOUND LEVEL (dB);LOCATION Latitude : ;LOCATION Longitude : ;LOCATION Altitude ( m);LOCATION Altitude-google ( m);LOCATION Speed ( Kmh);LOCATION Accuracy ( m);LOCATION ORIENTATION (°);Satellites in range;Time since start in ms ;YYYY-MO-DD HH-MI-SS_SSS
13.2551;-3.444;1.3181;-2.2314;-9.4954;1.0582;-8.4024;-1.1887;2.6491;-0.1004;-2.4183;-0.6469;201.0;-37.8;-8.94;-5.34;34.67;83.6;67.59;5.0;41.678;39.468933;-0.34098;69.3;NaN;;17.717;;0 / 20;14;2021-10-20 00:26:12:634
13.2551;-3.444;1.3181;-2.2314;-9.4954;1.0582;-8.4024;-1.1887;2.6491;-0.1004;-2.4183;-0.6469;201.0;-38.76;-6.49;-4.26;33.31;75.42;64.63;5.0;41.678;39.468933;-0.34098;69.3;NaN;;17.717;;0 / 20;20;2021-10-20 00:26:12:640
13.2551;-3.444;1.3181;-3.7445;-9.0501;0.5315;-4.0913;0.4122;3.6099;0.3438;-2.321;-0.6307;201.0;-38.76;-6.49;-4.26;33.31;75.42;64.63;5.0;41.678;39.468933;-0.34098;69.3;NaN;;17.717;;0 / 20;24;2021-10-20 00:26:12:644
10.706;-4.789;0.584;-3.7445;-9.0501;0.5315;-4.0913;0.4122;3.6099;0.3438;-2.321;-0.6307;201.0;-38.76;-6.49;-4.26;33.31;75.42;64.63;5.0;41.678;39.468933;-0.34098;69.3;NaN;;17.717;;0 / 20;30;2021-10-20 00:26:12:650
10.706;-4.789;0.584;-3.7445;-9.0501;0.5315;-4.0913;0.4122;3.6099;0.3438;-2.321;-0.6307;201.0;-38.76;-6.49;-4.26;33.31;75.42;64.63;5.0;41.678;39.468933;-0.34098;69.3;NaN;;17.717;;0 / 20;34;2021-10-20 00:26:12:654
8.4491;-5.967;0.6431;-5.4061;-8.169;0.4788;-4.0913;0.4122;3.6099;0.3438;-2.321;-0.6307;201.0;-39.36;-4.26;-4.56;33.31;75.42;64.63;5.0;41.678;39.468933;-0.34098;69.3;NaN;;17.717;;0 / 20;40;2021-10-20 00:26:12:660
8.4491;-5.967;0.6431;-5.4061;-8.169;0.4788;-4.0913;0.4122;3.6099;0.7055;-2.2444;-0.5224;201.0;-39.36;-4.26;-4.56;33.31;75.42;64.63;5.0;41.678;39.468933;-0.34098;69.3;NaN;;17.717;;0 / 20;45;2021-10-20 00:26:12:665
8.4491;-5.967;0.6431;-5.4061;-8.169;0.4788;-4.0913;0.4122;3.6099;0.7055;-2.2444;-0.5224;201.0;-39.36;-4.26;-4.56;33.31;75.42;64.63;5.0;41.678;39.468933;-0.34098;69.3;NaN;;17.717;;0 / 20;50;2021-10-20 00:26:12:670
6.9;-6.489;1.3331;-6.517;-7.2209;1.2593;-0.6832;2.2599;3.7114;0.7055;-2.2444;-0.5224;201.0;-39.36;-4.26;-4.56;33.31;75.42;64.63;5.0;41.678;39.468933;-0.34098;69.3;NaN;;17.717;;0 / 20;55;2021-10-20 00:26:12:675
6.9;-6.489;1.3331;-6.517;-7.2209;1.2593;-0.6832;2.2599;3.7114;0.7055;-2.2444;-0.5224;201.0;-39.54;-2.7;-5.4;25.52;47.41;79.06;5.0;41.678;39.468933;-0.34098;69.3;NaN;;17.717;;0 / 20;59;2021-10-20 00:26:12:679
6.9;-6.489;1.3331;-6.517;-7.2209;1.2593;-0.6832;2.2599;3.7114;0.7055;-2.2444;-0.5224;201.0;-39.54;-2.7;-5.4;25.52;47.41;79.06;5.0;41.678;39.468933;-0.34098;69.3;NaN;;17.717;;0 / 20;65;2021-10-20 00:26:12:685
6.9;-6.489;1.3331;-7.1251;-6.5266;1.6712;1.6284;3.1433;2.5246;0.9479;-2.1592;-0.3469;201.0;-39.54;-2.7;-5.4;25.52;47.41;79.06;5.0;41.678;39.468933;-0.34098;69.3;NaN;;17.717;;0 / 20;69;2021-10-20 00:26:12:689
6.0581;-6.565;1.632;-7.1251;-6.5266;1.6712;1.6284;3.1433;2.5246;0.9479;-2.1592;-0.3469;201.0;-39.54;-2.7;-5.4;25.52;47.41;79.06;5.0;41.678;39.468933;-0.34098;69.3;NaN;;17.717;;0 / 20;75;2021-10-20 00:26:12:695
6.0581;-6.565;1.632;-7.1251;-6.5266;1.6712;1.6284;3.1433;2.5246;0.9479;-2.1592;-0.3469;201.0;-39.66;-1.69;-6.66;25.52;47.41;79.06;5.0;41.678;39.468933;-0.34098;69.3;NaN;;17.717;;0 / 20;79;2021-10-20 00:26:12:699
6.941;-5.744;1.62;-6.3925;-7.2305;1.7478;2.1304;2.8705;2.0624;0.9479;-2.1592;-0.3469;201.0;-39.66;-1.69;-6.66;25.52;47.41;79.06;5.0;41.678;39.468933;-0.34098;69.3;NaN;;17.717;;0 / 20;85;2021-10-20 00:26:12:705
6.941;-5.744;1.62;-6.3925;-7.2305;1.7478;2.1304;2.8705;2.0624;1.0417;-2.0409;-0.0939;201.0;-39.66;-1.69;-6.66;25.52;47.41;79.06;5.0;41.678;39.468933;-0.34098;69.3;NaN;;17.717;;0 / 20;90;2021-10-20 00:26:12:710
6.941;-5.744;1.62;-6.3925;-7.2305;1.7478;2.1304;2.8705;2.0624;1.0417;-2.0409;-0.0939;201.0;-39.66;-1.69;-6.66;25.52;47.41;79.06;5.0;41.678;39.468933;-0.34098;69.3;NaN;;17.717;;0 / 20;95;2021-10-20 00:26:12:715
8.3321;-4.7201;1.943;-4.9033;-8.2839;1.8818;0.4366;1.5319;1.5689;1.0417;-2.0409;-0.0939;201.0;-39.66;-0.79;-7.74;34.87;47.49;74.71;5.0;41.678;39.468933;-0.34098;69.3;NaN;;17.717;;0 / 20;99;2021-10-20 00:26:12:719
8.3321;-4.7201;1.943;-4.9033;-8.2839;1.8818;0.4366;1.5319;1.5689;1.0417;-2.0409;-0.0939;201.0;-39.66;-0.79;-7.74;34.87;47.49;74.71;5.0;41.678;39.468933;-0.34098;69.3;NaN;;17.717;;0 / 20;105;2021-10-20 00:26:12:725
8.3321;-4.7201;1.943;-4.1037;-8.6096;2.2793;0.4366;1.5319;1.5689;1.0417;-2.0409;-0.0939;201.0;-39.66;-0.79;-7.74;34.87;47.49;74.71;5.0;41.678;39.468933;-0.34098;69.3;NaN;;17.717;;0 / 20;109;2021-10-20 00:26:12:729
9.0641;-4.27;2.477;-4.1037;-8.6096;2.2793;0.4366;1.5319;1.5689;1.0417;-2.0409;-0.0939;201.0;-39.66;-0.79;-7.74;34.87;47.49;74.71;5.0;41.678;39.468933;-0.34098;69.3;NaN;;17.717;;0 / 20;115;2021-10-20 00:26:12:735
9.0641;-4.27;2.477;-4.1037;-8.6096;2.2793;0.4366;1.5319;1.5689;1.0417;-2.0409;-0.0939;201.0;-39.11;0.06;-9.0;34.87;47.49;74.71;5.0;41.678;39.468933;-0.34098;69.3;NaN;;17.717;;0 / 20;120;2021-10-20 00:26:12:740
9.0641;-4.27;2.477;-3.9361;-8.6766;2.3176;-0.3906;0.88;0.7169;1.3574;-1.7509;0.6702;201.0;-39.11;0.06;-9.0;34.87;47.49;74.71;5.0;41.678;39.468933;-0.34098;69.3;NaN;;17.717;;0 / 20;125;2021-10-20 00:26:12:745
9.215;-4.1021;2.2931;-3.9361;-8.6766;2.3176;-0.3906;0.88;0.7169;1.3574;-1.7509;0.6702;201.0;-39.11;0.06;-9.0;34.87;47.49;74.71;5.0;41.678;39.468933;-0.34098;69.3;NaN;;17.717;;0 / 20;130;2021-10-20 00:26:12:750
9.215;-4.1021;2.2931;-3.8259;-8.8155;1.9585;-0.3906;0.88;0.7169;1.3574;-1.7509;0.6702;201.0;-39.11;0.06;-9.0;34.87;47.49;74.71;5.0;41.678;39.468933;-0.34098;69.3;NaN;;17.717;;0 / 20;134;2021-10-20 00:26:12:754
9.215;-4.1021;2.2931;-3.8259;-8.8155;1.9585;-0.3906;0.88;0.7169;1.3574;-1.7509;0.6702;201.0;-38.76;0.41;-10.01;44.53;64.01;62.89;5.0;41.678;39.468933;-0.34098;69.3;NaN;;17.717;;0 / 20;140;2021-10-20 00:26:12:760
9.5981;-4.011;1.907;-3.8259;-8.8155;1.9585;-0.3906;0.88;0.7169;1.3782;-1.5899;0.9672;201.0;-38.76;0.41;-10.01;44.53;64.01;62.89;5.0;41.678;39.468933;-0.34098;69.3;NaN;;17.717;;0 / 20;145;2021-10-20 00:26:12:765
9.5981;-4.011;1.907;-3.6248;-8.9783;1.5514;-0.6969;0.6758;0.9427;1.3782;-1.5899;0.9672;201.0;-38.76;0.41;-10.01;44.53;64.01;62.89;5.0;41.678;39.468933;-0.34098;69.3;NaN;;17.717;;0 / 20;150;2021-10-20 00:26:12:770
9.5981;-4.011;1.907;-3.6248;-8.9783;1.5514;-0.6969;0.6758;0.9427;1.3782;-1.5899;0.9672;201.0;-38.76;0.41;-10.01;44.53;64.01;62.89;5.0;41.678;39.468933;-0.34098;69.3;NaN;;17.717;;0 / 20;154;2021-10-20 00:26:12:774
9.902;-4.006;1.484;-3.6248;-8.9783;1.5514;-0.6969;0.6758;0.9427;1.3782;-1.5899;0.9672;71.0;-38.21;1.01;-10.74;44.53;64.01;62.89;5.0;41.678;39.468933;-0.34098;69.3;NaN;;17.717;;0 / 20;160;2021-10-20 00:26:12:780
9.902;-4.006;1.484;-3.7158;-9.0118;1.0774;-1.1787;0.4308;1.2911;1.3782;-1.5899;0.9672;71.0;-38.21;1.01;-10.74;44.53;64.01;62.89;5.0;41.678;39.468933;-0.34098;69.3;NaN;;17.717;;0 / 20;164;2021-10-20 00:26:12:784
9.902;-4.006;1.484;-3.7158;-9.0118;1.0774;-1.1787;0.4308;1.2911;1.3782;-1.5899;0.9672;71.0;-38.21;1.01;-10.74;44.53;64.01;62.89;5.0;41.678;39.468933;-0.34098;69.3;NaN;;17.717;;0 / 20;170;2021-10-20 00:26:12:790
9.9431;-4.14;1.0721;-3.7158;-9.0118;1.0774;-1.1787;0.4308;1.2911;1.1858;-1.447;1.1067;71.0;-38.21;1.01;-10.74;44.53;64.01;62.89;5.0;41.678;39.468933;-0.34098;69.3;NaN;;17.717;;0 / 20;175;2021-10-20 00:26:12:795
9.9431;-4.14;1.0721;-3.6536;-9.0836;0.5411;-1.3318;0.4155;1.945;1.1858;-1.447;1.1067;71.0;-38.16;1.56;-11.46;33.87;66.77;73.83;5.0;41.678;39.468933;-0.34098;69.3;NaN;;17.717;;0 / 20;180;2021-10-20 00:26:12:800
9.9431;-4.14;1.0721;-3.6536;-9.0836;0.5411;-1.3318;0.4155;1.945;1.0303;-1.2881;1.0467;71.0;-38.16;1.56;-11.46;33.87;66.77;73.83;5.0;41.678;39.468933;-0.34098;69.3;NaN;;17.717;;0 / 20;184;2021-10-20 00:26:12:804
10.283;-4.105;0.414;-3.6536;-9.0836;0.5411;-1.3318;0.4155;1.945;1.0303;-1.2881;1.0467;71.0;-38.16;1.56;-11.46;33.87;66.77;73.83;5.0;41.678;39.468933;-0.34098;69.3;NaN;;17.717;;0 / 20;190;2021-10-20 00:26:12:810
10.283;-4.105;0.414;-3.6823;-9.0836;0.3065;-1.3318;0.4155;1.945;1.0303;-1.2881;1.0467;71.0;-38.16;1.56;-11.46;33.87;66.77;73.83;5.0;41.678;39.468933;-0.34098;69.3;NaN;;17.717;;0 / 20;194;2021-10-20 00:26:12:814
10.283;-4.105;0.414;-3.6823;-9.0836;0.3065;-1.3318;0.4155;1.945;1.0303;-1.2881;1.0467;71.0;-38.04;1.8;-11.94;33.87;66.77;73.83;5.0;41.678;39.468933;-0.34098;69.3;NaN;;17.717;;0 / 20;200;2021-10-20 00:26:12:820
10.5101;-4.4561;0.663;-3.6823;-9.0836;0.3065;-1.3318;0.4155;1.945;1.0303;-1.2881;1.0467;71.0;-38.04;1.8;-11.94;33.87;66.77;73.83;5.0;41.678;39.468933;-0.34098;69.3;NaN;;17.717;;0 / 20;204;2021-10-20 00:26:12:824
10.5101;-4.4561;0.663;-3.8547;-8.9783;0.8332;-1.8006;0.4976;2.2205;0.9009;-1.1506;0.8999;71.0;-38.04;1.8;-11.94;33.87;66.77;73.83;5.0;38.493;39.468933;-0.34098;69.3;NaN;;17.717;;0 / 20;210;2021-10-20 00:26:12:830
10.5101;-4.4561;0.663;-3.8547;-8.9783;0.8332;-1.8006;0.4976;2.2205;0.9009;-1.1506;0.8999;71.0;-38.04;1.8;-11.94;33.87;66.77;73.83;5.0;38.493;39.468933;-0.34098;69.3;NaN;;17.717;;0 / 20;214;2021-10-20 00:26:12:834
10.5791;-4.7201;1.4051;-3.8547;-8.9783;0.8332;-1.8006;0.4976;2.2205;0.9009;-1.1506;0.8999;71.0;-37.74;2.51;-12.11;30.99;66.29;77.8;5.0;38.493;39.468933;-0.34098;69.3;NaN;;17.717;;0 / 20;220;2021-10-20 00:26:12:840
10.5791;-4.7201;1.4051;-4.0079;-8.8538;1.3072;-1.8946;0.848;1.2299;0.6442;-0.9648;0.4436;71.0;-37.74;2.51;-12.11;30.99;66.29;77.8;5.0;38.493;39.468933;-0.34098;69.3;NaN;;17.717;;0 / 20;225;2021-10-20 00:26:12:845
10.5791;-4.7201;1.4051;-4.0079;-8.8538;1.3072;-1.8946;0.848;1.2299;0.6442;-0.9648;0.4436;71.0;-37.74;2.51;-12.11;30.99;66.29;77.8;5.0;38.493;39.468933;-0.34098;69.3;NaN;;17.717;;0 / 20;230;2021-10-20 00:26:12:850
10.1771;-5.014;2.1251;-4.2521;-8.6239;1.9249;-1.8946;0.848;1.2299;0.6442;-0.9648;0.4436;71.0;-37.74;2.51;-12.11;30.99;66.29;77.8;5.0;38.493;39.468933;-0.34098;69.3;NaN;;17.717;;0 / 20;234;2021-10-20 00:26:12:854
10.1771;-5.014;2.1251;-4.2521;-8.6239;1.9249;-1.8946;0.848;1.2299;0.6442;-0.9648;0.4436;71.0;-37.44;3.0;-12.54;30.99;66.29;77.8;5.0;38.493;39.468933;-0.34098;69.3;NaN;;17.717;;0 / 20;240;2021-10-20 00:26:12:860
10.1771;-5.014;2.1251;-4.2521;-8.6239;1.9249;-1.8946;0.848;1.2299;0.3469;-0.7353;0.1836;71.0;-37.44;3.0;-12.54;30.99;66.29;77.8;5.0;38.493;39.468933;-0.34098;69.3;NaN;;17.717;;0 / 20;245;2021-10-20 00:26:12:865
10.046;-4.7801;2.6561;-4.027;-8.6431;2.2936;-1.4101;1.1868;0.0932;0.3469;-0.7353;0.1836;71.0;-37.44;3.0;-12.54;30.99;66.29;77.8;5.0;38.493;39.468933;-0.34098;69.3;NaN;;17.717;;0 / 20;250;2021-10-20 00:26:12:870
10.046;-4.7801;2.6561;-4.027;-8.6431;2.2936;-1.4101;1.1868;0.0932;0.3469;-0.7353;0.1836;71.0;-37.44;3.0;-12.54;30.99;66.29;77.8;5.0;38.493;39.468933;-0.34098;69.3;NaN;;17.717;;0 / 20;255;2021-10-20 00:26:12:875
10.046;-4.7801;2.6561;-4.027;-8.6431;2.2936;-1.4101;1.1868;0.0932;0.3469;-0.7353;0.1836;71.0;-37.2;3.11;-12.84;50.88;61.8;60.34;5.0;38.493;39.468933;-0.34098;69.3;NaN;;17.717;;0 / 20;260;2021-10-20 00:26:12:880
10.208;-4.4561;2.544;-3.8307;-8.758;2.1979;-1.4865;0.7827;-0.4429;0.3469;-0.7353;0.1836;71.0;-37.2;3.11;-12.84;50.88;61.8;60.34;5.0;38.493;39.468933;-0.34098;69.3;NaN;;17.717;;0 / 20;265;2021-10-20 00:26:12:885
10.208;-4.4561;2.544;-3.8307;-8.758;2.1979;-1.4865;0.7827;-0.4429;-0.0021;-0.4954;0.0517;71.0;-37.2;3.11;-12.84;50.88;61.8;60.34;5.0;38.493;39.468933;-0.34098;69.3;NaN;;17.717;;0 / 20;270;2021-10-20 00:26:12:890
10.208;-4.4561;2.544;-3.8307;-8.758;2.1979;-1.4865;0.7827;-0.4429;-0.0021;-0.4954;0.0517;71.0;-37.14;3.36;-12.84;50.88;61.8;60.34;5.0;38.493;39.468933;-0.34098;69.3;NaN;;17.717;;0 / 20;275;2021-10-20 00:26:12:895
9.933;-4.2409;2.69;-3.7541;-8.7484;2.3511;-1.1577;0.4322;-0.5345;-0.36;-0.2892;-0.0344;71.0;-37.14;3.36;-12.84;50.88;61.8;60.34;5.0;38.493;39.468933;-0.34098;69.3;NaN;;17.717;;0 / 20;280;2021-10-20 00:26:12:900
9.933;-4.2409;2.69;-3.7541;-8.7484;2.3511;-1.1577;0.4322;-0.5345;-0.36;-0.2892;-0.0344;71.0;-37.14;3.36;-12.84;50.88;61.8;60.34;5.0;38.493;39.468933;-0.34098;69.3;NaN;;17.717;;0 / 20;285;2021-10-20 00:26:12:905
9.933;-4.2409;2.69;-3.7541;-8.7484;2.3511;-1.1577;0.4322;-0.5345;-0.36;-0.2892;-0.0344;71.0;-37.14;3.36;-12.84;50.88;61.8;60.34;5.0;38.493;39.468933;-0.34098;69.3;NaN;;17.717;;0 / 20;289;2021-10-20 00:26:12:909
9.564;-4.2941;3.102;-3.8978;-8.5377;2.8443;-1.1577;0.4322;-0.5345;-0.36;-0.2892;-0.0344;71.0;-37.14;3.36;-12.84;50.88;61.8;60.34;5.0;38.493;39.468933;-0.34098;69.3;NaN;;17.717;;0 / 20;295;2021-10-20 00:26:12:915
9.564;-4.2941;3.102;-3.8978;-8.5377;2.8443;-1.1577;0.4322;-0.5345;-0.36;-0.2892;-0.0344;71.0;-37.26;3.54;-13.14;56.59;60.53;53.88;5.0;38.493;39.468933;-0.34098;69.3;NaN;;17.717;;0 / 20;299;2021-10-20 00:26:12:919
9.564;-4.2941;3.102;-3.8978;-8.5377;2.8443;-1.1577;0.4322;-0.5345;-0.5959;-0.133;-0.0967;71.0;-37.26;3.54;-13.14;56.59;60.53;53.88;5.0;38.493;39.468933;-0.34098;69.3;NaN;;17.717;;0 / 20;306;2021-10-20 00:26:12:926
9.6911;-4.801;3.1931;-4.2617;-8.4228;2.6576;-0.8041;0.5324;-1.0666;-0.5959;-0.133;-0.0967;71.0;-37.26;3.54;-13.14;56.59;60.53;53.88;5.0;38.493;39.468933;-0.34098;69.3;NaN;;17.717;;0 / 20;310;2021-10-20 00:26:12:930
9.6911;-4.801;3.1931;-4.2617;-8.4228;2.6576;-0.8041;0.5324;-1.0666;-0.5959;-0.133;-0.0967;71.0;-37.31;3.36;-13.26;56.59;60.53;53.88;5.0;38.493;39.468933;-0.34098;69.3;NaN;;17.717;;0 / 20;315;2021-10-20 00:26:12:935
9.6911;-4.801;3.1931;-4.2617;-8.4228;2.6576;-0.8041;0.5324;-1.0666;-0.6693;-0.029;-0.1178;71.0;-37.31;3.36;-13.26;56.59;60.53;53.88;5.0;38.493;39.468933;-0.34098;69.3;NaN;;17.717;;0 / 20;320;2021-10-20 00:26:12:940
9.71;-5.026;2.711;-4.4867;-8.4324;2.2266;-0.9164;1.1244;-0.8234;-0.6693;-0.029;-0.1178;71.0;-37.31;3.36;-13.26;56.59;60.53;53.88;5.0;38.493;39.468933;-0.34098;69.3;NaN;;17.717;;0 / 20;325;2021-10-20 00:26:12:945
9.71;-5.026;2.711;-4.4867;-8.4324;2.2266;-0.9164;1.1244;-0.8234;-0.6693;-0.029;-0.1178;71.0;-37.31;3.36;-13.26;56.59;60.53;53.88;5.0;38.493;39.468933;-0.34098;69.3;NaN;;17.717;;0 / 20;329;2021-10-20 00:26:12:949
9.71;-5.026;2.711;-4.4867;-8.4324;2.2266;-0.9164;1.1244;-0.8234;-0.6693;-0.029;-0.1178;71.0;-37.31;3.36;-13.26;56.59;60.53;53.88;5.0;38.493;39.468933;-0.34098;69.3;NaN;;17.717;;0 / 20;335;2021-10-20 00:26:12:955
7.719;-6.209;1.721;-5.8323;-7.6136;2.0446;0.8355;2.2551;0.4823;-0.3792;0.0011;0.066;71.0;-37.44;3.11;-13.74;49.59;59.29;63.61;5.0;38.493;39.468933;-0.34098;69.3;NaN;;17.717;;0 / 20;340;2021-10-20 00:26:12:960
7.719;-6.209;1.721;-5.8323;-7.6136;2.0446;0.8355;2.2551;0.4823;-0.3792;0.0011;0.066;71.0;-37.44;3.11;-13.74;49.59;59.29;63.61;5.0;38.493;39.468933;-0.34098;69.3;NaN;;17.717;;0 / 20;345;2021-10-20 00:26:12:965
7.719;-6.209;1.721;-5.8323;-7.6136;2.0446;0.8355;2.2551;0.4823;-0.3792;0.0011;0.066;71.0;-37.44;3.11;-13.74;49.59;59.29;63.61;5.0;38.493;39.468933;-0.34098;69.3;NaN;;17.717;;0 / 20;350;2021-10-20 00:26:12:970
8.82;-6.029;1.5791;-5.4684;-8.0541;1.1827;0.8355;2.2551;0.4823;-0.3792;0.0011;0.066;71.0;-37.44;3.11;-13.74;49.59;59.29;63.61;5.0;38.493;39.468933;-0.34098;69.3;NaN;;17.717;;0 / 20;355;2021-10-20 00:26:12:975
8.82;-6.029;1.5791;-5.4684;-8.0541;1.1827;0.8355;2.2551;0.4823;-0.0851;-5.0E-4;0.2926;71.0;-37.14;3.11;-13.31;49.59;59.29;63.61;5.0;38.493;39.468933;-0.34098;69.3;NaN;;17.717;;0 / 20;360;2021-10-20 00:26:12:980
8.82;-6.029;1.5791;-5.4684;-8.0541;1.1827;0.8355;2.2551;0.4823;-0.0851;-5.0E-4;0.2926;71.0;-37.14;3.11;-13.31;49.59;59.29;63.61;5.0;38.493;39.468933;-0.34098;69.3;NaN;;17.717;;0 / 20;365;2021-10-20 00:26:12:985
8.8271;-6.357;0.744;-5.8083;-7.8721;0.656;-0.2497;2.1867;0.7071;-0.0851;-5.0E-4;0.2926;71.0;-37.14;3.11;-13.31;49.59;59.29;63.61;5.0;38.493;39.468933;-0.34098;69.3;NaN;;17.717;;0 / 20;370;2021-10-20 00:26:12:990
8.8271;-6.357;0.744;-5.8083;-7.8721;0.656;-0.2497;2.1867;0.7071;-0.0851;-5.0E-4;0.2926;71.0;-37.26;2.76;-13.44;49.59;59.29;63.61;5.0;38.493;39.468933;-0.34098;69.3;NaN;;17.717;;0 / 20;375;2021-10-20 00:26:12:995
8.8271;-6.357;0.744;-5.8083;-7.8721;0.656;-0.2497;2.1867;0.7071;-0.0851;-5.0E-4;0.2926;71.0;-37.26;2.76;-13.44;29.53;53.41;83.56;5.0;38.493;39.468933;-0.34098;69.3;NaN;;17.717;;0 / 20;380;2021-10-20 00:26:13:000
8.258;-6.5411;0.239;-6.0478;-7.7189;0.1772;0.2511;2.497;1.4343;-0.1211;0.0072;0.3795;71.0;-37.26;2.76;-13.44;29.53;53.41;83.56;5.0;38.493;39.468933;-0.34098;69.3;NaN;;17.717;;0 / 20;385;2021-10-20 00:26:13:005
8.258;-6.5411;0.239;-6.0478;-7.7189;0.1772;0.2511;2.497;1.4343;-0.1211;0.0072;0.3795;71.0;-37.26;2.76;-13.44;29.53;53.41;83.56;5.0;38.493;39.468933;-0.34098;69.3;NaN;;17.717;;0 / 20;390;2021-10-20 00:26:13:010
8.258;-6.5411;0.239;-6.0478;-7.7189;0.1772;0.2511;2.497;1.4343;-0.1211;0.0072;0.3795;71.0;-37.26;2.76;-13.44;29.53;53.41;83.56;5.0;38.493;39.468933;-0.34098;69.3;NaN;;17.717;;0 / 20;395;2021-10-20 00:26:13:015
8.186;-6.5411;-0.27;-6.0908;-7.6758;-0.3591;0.5156;2.4639;2.1053;-0.1211;0.0072;0.3795;71.0;-37.31;2.51;-13.14;29.53;53.41;83.56;5.0;38.493;39.468933;-0.34098;69.3;NaN;;17.717;;0 / 20;400;2021-10-20 00:26:13:020
8.186;-6.5411;-0.27;-6.0908;-7.6758;-0.3591;0.5156;2.4639;2.1053;-0.29;-0.0014;0.4368;71.0;-37.31;2.51;-13.14;29.53;53.41;83.56;5.0;38.493;39.468933;-0.34098;69.3;NaN;;17.717;;0 / 20;404;2021-10-20 00:26:13:024
8.186;-6.5411;-0.27;-6.0908;-7.6758;-0.3591;0.5156;2.4639;2.1053;-0.29;-0.0014;0.4368;71.0;-37.31;2.51;-13.14;29.53;53.41;83.56;5.0;38.493;39.468933;-0.34098;69.3;NaN;;17.717;;0 / 20;410;2021-10-20 00:26:13:030
8.4371;-6.3911;-0.746;-5.8035;-7.8721;-0.7374;0.5156;2.4639;2.1053;-0.29;-0.0014;0.4368;71.0;-37.31;2.51;-13.14;29.53;53.41;83.56;5.0;38.493;39.468933;-0.34098;69.3;NaN;;17.717;;0 / 20;414;2021-10-20 00:26:13:034
8.4371;-6.3911;-0.746;-5.8035;-7.8721;-0.7374;0.5156;2.4639;2.1053;-0.6442;-0.0544;0.5342;71.0;-37.44;2.4;-12.71;14.44;53.38;97.24;5.0;38.493;39.468933;-0.34098;69.3;NaN;;17.717;;0 / 20;420;2021-10-20 00:26:13:040
8.4371;-6.3911;-0.746;-5.8035;-7.8721;-0.7374;0.5156;2.4639;2.1053;-0.6442;-0.0544;0.5342;71.0;-37.44;2.4;-12.71;14.44;53.38;97.24;5.0;38.493;39.468933;-0.34098;69.3;NaN;;17.717;;0 / 20;425;2021-10-20 00:26:13:045
9.435;-5.637;-1.491;-4.8746;-8.3749;-1.5179;0.0921;2.1011;2.7372;-0.6442;-0.0544;0.5342;71.0;-37.44;2.4;-12.71;14.44;53.38;97.24;5.0;38.493;39.468933;-0.34098;69.3;NaN;;17.717;;0 / 20;430;2021-10-20 00:26:13:050
9.435;-5.637;-1.491;-4.8746;-8.3749;-1.5179;0.0921;2.1011;2.7372;-0.6442;-0.0544;0.5342;71.0;-37.44;2.4;-12.71;14.44;53.38;97.24;5.0;38.493;39.468933;-0.34098;69.3;NaN;;17.717;;0 / 20;435;2021-10-20 00:26:13:055
9.435;-5.637;-1.491;-4.8746;-8.3749;-1.5179;0.0921;2.1011;2.7372;-1.0614;-0.1096;0.5104;71.0;-37.8;2.21;-12.24;14.44;53.38;97.24;5.0;38.493;39.468933;-0.34098;69.3;NaN;;17.717;;0 / 20;440;2021-10-20 00:26:13:060
8.837;-4.875;-2.676;-4.5729;-8.2696;-2.6193;-0.3967;0.7341;4.1399;-1.0614;-0.1096;0.5104;71.0;-37.8;2.21;-12.24;14.44;53.38;97.24;5.0;38.493;39.468933;-0.34098;69.3;NaN;;17.717;;0 / 20;444;2021-10-20 00:26:13:064
8.837;-4.875;-2.676;-4.5729;-8.2696;-2.6193;-0.3967;0.7341;4.1399;-1.0614;-0.1096;0.5104;71.0;-37.8;2.21;-12.24;14.44;53.38;97.24;5.0;38.493;39.468933;-0.34098;69.3;NaN;;17.717;;0 / 20;450;2021-10-20 00:26:13:070
8.9681;-4.902;-2.9891;-4.5107;-8.2552;-2.7725;-0.3967;0.7341;4.1399;-1.0614;-0.1096;0.5104;71.0;-37.91;1.91;-11.46;342.4;57.33;121.58;5.0;38.493;39.468933;-0.34098;69.3;NaN;;17.717;;0 / 20;455;2021-10-20 00:26:13:075
8.9681;-4.902;-2.9891;-4.5107;-8.2552;-2.7725;-0.3967;0.7341;4.1399;-1.0614;-0.1096;0.5104;71.0;-37.91;1.91;-11.46;342.4;57.33;121.58;5.0;38.493;39.468933;-0.34098;69.3;NaN;;17.717;;0 / 20;460;2021-10-20 00:26:13:080
8.9681;-4.902;-2.9891;-4.5107;-8.2552;-2.7725;-0.3967;0.7341;4.1399;-1.0614;-0.1096;0.5104;71.0;-37.91;1.91;-11.46;342.4;57.33;121.58;5.0;38.493;39.468933;-0.34098;69.3;NaN;;17.717;;0 / 20;464;2021-10-20 00:26:13:084
8.925;-5.208;-2.8841;-4.8076;-8.1738;-2.5043;-0.433;0.4478;4.6821;-1.5084;-0.1957;0.4906;71.0;-37.91;1.91;-11.46;342.4;57.33;121.58;5.0;38.493;39.468933;-0.34098;69.3;NaN;;17.717;;0 / 20;470;2021-10-20 00:26:13:090
8.925;-5.208;-2.8841;-4.8076;-8.1738;-2.5043;-0.433;0.4478;4.6821;-1.5084;-0.1957;0.4906;71.0;-37.91;1.91;-11.46;342.4;57.33;121.58;5.0;38.493;39.468933;-0.34098;69.3;NaN;;17.717;;0 / 20;474;2021-10-20 00:26:13:094
8.925;-5.208;-2.8841;-4.8076;-8.1738;-2.5043;-0.433;0.4478;4.6821;-1.5084;-0.1957;0.4906;71.0;-38.1;1.8;-11.1;342.4;57.33;121.58;5.0;38.493;39.468933;-0.34098;69.3;NaN;;17.717;;0 / 20;480;2021-10-20 00:26:13:100
8.346;-5.6891;-1.651;-5.5641;-7.9487;-1.4222;-0.13;0.7686;3.7923;-1.7689;-0.2837;0.5112;71.0;-38.1;1.8;-11.1;342.4;57.33;121.58;5.0;38.493;39.468933;-0.34098;69.3;NaN;;17.717;;0 / 20;484;2021-10-20 00:26:13:104
8.346;-5.6891;-1.651;-5.5641;-7.9487;-1.4222;-0.13;0.7686;3.7923;-1.7689;-0.2837;0.5112;48.0;-38.1;1.8;-11.1;342.4;57.33;121.58;5.0;38.493;39.468933;-0.34098;69.3;NaN;;17.717;;0 / 20;490;2021-10-20 00:26:13:110
8.346;-5.6891;-1.651;-5.5641;-7.9487;-1.4222;-0.13;0.7686;3.7923;-1.7689;-0.2837;0.5112;48.0;-38.1;1.8;-11.1;342.4;57.33;121.58;5.0;38.493;39.468933;-0.34098;69.3;NaN;;17.717;;0 / 20;495;2021-10-20 00:26:13:115
7.805;-5.7731;-1.4621;-5.7126;-7.8147;-1.561;0.693;1.1172;2.5872;-1.7689;-0.2837;0.5112;48.0;-38.21;1.56;-10.5;0.48;54.15;104.34;5.0;38.493;39.468933;-0.34098;69.3;NaN;;17.717;;0 / 20;500;2021-10-20 00:26:13:120
7.805;-5.7731;-1.4621;-5.7126;-7.8147;-1.561;0.693;1.1172;2.5872;-1.8238;-0.3182;0.4671;48.0;-38.21;1.56;-10.5;0.48;54.15;104.34;5.0;38.493;39.468933;-0.34098;69.3;NaN;;17.717;;0 / 20;505;2021-10-20 00:26:13:125
7.805;-5.7731;-1.4621;-5.7126;-7.8147;-1.561;0.693;1.1172;2.5872;-1.8238;-0.3182;0.4671;48.0;-38.21;1.56;-10.5;0.48;54.15;104.34;5.0;38.493;39.468933;-0.34098;69.3;NaN;;17.717;;0 / 20;510;2021-10-20 00:26:13:130
8.3531;-5.711;-2.3381;-5.5019;-7.8482;-2.0734;-0.0758;0.7309;3.2471;-1.8344;-0.373;0.4327;48.0;-38.4;1.2;-10.61;0.48;54.15;104.34;5.0;37.905;39.468933;-0.34098;69.3;NaN;;17.717;;0 / 20;527;2021-10-20 00:26:13:147
8.3531;-5.711;-2.3381;-5.5019;-7.8482;-2.0734;-0.0758;0.7309;3.2471;-1.8344;-0.373;0.4327;48.0;-38.4;1.2;-10.61;0.48;54.15;104.34;5.0;37.905;39.468933;-0.34098;69.3;NaN;;17.717;;0 / 20;527;2021-10-20 00:26:13:147
8.3531;-5.711;-2.3381;-5.5019;-7.8482;-2.0734;-0.0758;0.7309;3.2471;-1.8344;-0.373;0.4327;48.0;-38.4;1.2;-10.61;0.48;54.15;104.34;5.0;37.905;39.468933;-0.34098;69.3;NaN;;17.717;;0 / 20;527;2021-10-20 00:26:13:147
8.3531;-5.711;-2.3381;-5.5019;-7.8482;-2.0734;-0.0758;0.7309;3.2471;-1.8344;-0.373;0.4327;48.0;-38.4;1.2;-10.61;0.48;54.15;104.34;5.0;37.905;39.468933;-0.34098;69.3;NaN;;17.717;;0 / 20;529;2021-10-20 00:26:13:149
8.3531;-5.711;-2.3381;-5.5019;-7.8482;-2.0734;-0.0758;0.7309;3.2471;-1.8344;-0.373;0.4327;48.0;-38.4;1.2;-10.61;0.48;54.15;104.34;5.0;37.905;39.468933;-0.34098;69.3;NaN;;17.717;;0 / 20;535;2021-10-20 00:26:13:155
8.3531;-5.711;-2.3381;-5.5019;-7.8482;-2.0734;-0.0758;0.7309;3.2471;-1.753;-0.4294;0.3955;48.0;-38.34;0.84;-10.5;352.77;53.16;110.65;5.0;37.905;39.468933;-0.34098;69.3;NaN;;17.717;;0 / 20;539;2021-10-20 00:26:13:159
8.1911;-6.173;-1.0001;-5.9568;-7.762;-0.6752;0.2879;1.029;2.4309;-1.753;-0.4294;0.3955;48.0;-38.34;0.84;-10.5;352.77;53.16;110.65;5.0;37.905;39.468933;-0.34098;69.3;NaN;;17.717;;0 / 20;545;2021-10-20 00:26:13:165
8.1911;-6.173;-1.0001;-5.9568;-7.762;-0.6752;0.2879;1.029;2.4309;-1.753;-0.4294;0.3955;48.0;-38.34;0.84;-10.5;352.77;53.16;110.65;5.0;37.905;39.468933;-0.34098;69.3;NaN;;17.717;;0 / 20;550;2021-10-20 00:26:13:170
8.001;-6.4241;0.236;-6.0765;-7.6902;0.2969;0.2879;1.029;2.4309;-1.753;-0.4294;0.3955;48.0;-38.34;0.84;-10.5;352.77;53.16;110.65;5.0;37.905;39.468933;-0.34098;69.3;NaN;;17.717;;0 / 20;555;2021-10-20 00:26:13:175
8.001;-6.4241;0.236;-6.0765;-7.6902;0.2969;0.2879;1.029;2.4309;-1.753;-0.4294;0.3955;48.0;-38.4;0.54;-10.61;352.77;53.16;110.65;5.0;37.905;39.468933;-0.34098;69.3;NaN;;17.717;;0 / 20;559;2021-10-20 00:26:13:179
8.001;-6.4241;0.236;-6.0765;-7.6902;0.2969;0.2879;1.029;2.4309;-1.753;-0.4294;0.3955;48.0;-38.4;0.54;-10.61;352.77;53.16;110.65;5.0;37.905;39.468933;-0.34098;69.3;NaN;;17.717;;0 / 20;565;2021-10-20 00:26:13:185
8.025;-6.568;0.89;-6.2249;-7.5322;0.8284;0.2992;1.3728;0.2025;-1.4997;-0.4565;0.3541;48.0;-38.4;0.54;-10.61;352.77;53.16;110.65;5.0;37.905;39.468933;-0.34098;69.3;NaN;;17.717;;0 / 20;570;2021-10-20 00:26:13:190
8.025;-6.568;0.89;-6.2249;-7.5322;0.8284;0.2992;1.3728;0.2025;-1.4997;-0.4565;0.3541;48.0;-38.4;0.54;-10.61;352.77;53.16;110.65;5.0;37.905;39.468933;-0.34098;69.3;NaN;;17.717;;0 / 20;575;2021-10-20 00:26:13:195
8.025;-6.568;0.89;-6.2249;-7.5322;0.8284;0.2992;1.3728;0.2025;-1.1763;-0.4619;0.3102;48.0;-38.46;0.3;-10.91;29.78;50.18;82.42;5.0;37.905;39.468933;-0.34098;69.3;NaN;;17.717;;0 / 20;580;2021-10-20 00:26:13:200
7.86;-6.771;1.0721;-6.426;-7.3215;1.1349;0.476;1.5426;-0.5112;-1.1763;-0.4619;0.3102;48.0;-38.46;0.3;-10.91;29.78;50.18;82.42;5.0;37.905;39.468933;-0.34098;69.3;NaN;;17.717;;0 / 20;585;2021-10-20 00:26:13:205
7.86;-6.771;1.0721;-6.426;-7.3215;1.1349;0.476;1.5426;-0.5112;-1.1763;-0.4619;0.3102;48.0;-38.46;0.3;-10.91;29.78;50.18;82.42;5.0;37.905;39.468933;-0.34098;69.3;NaN;;17.717;;0 / 20;589;2021-10-20 00:26:13:209
7.86;-6.771;1.0721;-6.426;-7.3215;1.1349;0.476;1.5426;-0.5112;-1.1763;-0.4619;0.3102;48.0;-38.46;0.3;-10.91;29.78;50.18;82.42;5.0;37.905;39.468933;-0.34098;69.3;NaN;;17.717;;0 / 20;595;2021-10-20 00:26:13:215
7.784;-7.195;2.0441;-6.5457;-7.015;2.0207;0.5583;2.0018;-1.696;-0.4804;-0.4393;0.4168;48.0;-38.4;-0.06;-11.16;29.78;50.18;82.42;5.0;37.905;39.468933;-0.34098;69.3;NaN;;17.717;;0 / 20;600;2021-10-20 00:26:13:220
7.784;-7.195;2.0441;-6.5457;-7.015;2.0207;0.5583;2.0018;-1.696;-0.4804;-0.4393;0.4168;48.0;-38.4;-0.06;-11.16;29.78;50.18;82.42;5.0;37.905;39.468933;-0.34098;69.3;NaN;;17.717;;0 / 20;605;2021-10-20 00:26:13:225
7.784;-7.195;2.0441;-6.5457;-7.015;2.0207;0.5583;2.0018;-1.696;-0.4804;-0.4393;0.4168;48.0;-38.4;-0.06;-11.16;29.78;50.18;82.42;5.0;37.905;39.468933;-0.34098;69.3;NaN;;17.717;;0 / 20;609;2021-10-20 00:26:13:229
7.764;-6.9769;2.7041;-6.3494;-7.0342;2.5331;0.5583;2.0018;-1.696;-0.4804;-0.4393;0.4168;48.0;-38.4;-0.06;-11.16;29.78;50.18;82.42;5.0;37.905;39.468933;-0.34098;69.3;NaN;;17.717;;0 / 20;615;2021-10-20 00:26:13:235
7.764;-6.9769;2.7041;-6.3494;-7.0342;2.5331;0.5583;2.0018;-1.696;0.1917;-0.3935;0.517;48.0;-38.21;-0.36;-11.46;47.34;45.82;68.25;5.0;37.905;39.468933;-0.34098;69.3;NaN;;17.717;;0 / 20;620;2021-10-20 00:26:13:240
7.764;-6.9769;2.7041;-6.3494;-7.0342;2.5331;0.5583;2.0018;-1.696;0.1917;-0.3935;0.517;48.0;-38.21;-0.36;-11.46;47.34;45.82;68.25;5.0;37.905;39.468933;-0.34098;69.3;NaN;;17.717;;0 / 20;625;2021-10-20 00:26:13:245
7.685;-6.6469;2.7761;-6.1339;-7.2305;2.5139;0.6012;1.6852;-2.6131;0.1917;-0.3935;0.517;48.0;-38.21;-0.36;-11.46;47.34;45.82;68.25;5.0;37.905;39.468933;-0.34098;69.3;NaN;;17.717;;0 / 20;630;2021-10-20 00:26:13:250
7.685;-6.6469;2.7761;-6.1339;-7.2305;2.5139;0.6012;1.6852;-2.6131;0.1917;-0.3935;0.517;48.0;-38.21;-0.36;-11.46;47.34;45.82;68.25;5.0;37.905;39.468933;-0.34098;69.3;NaN;;17.717;;0 / 20;635;2021-10-20 00:26:13:255
7.685;-6.6469;2.7761;-6.1339;-7.2305;2.5139;0.6012;1.6852;-2.6131;0.6432;-0.3435;0.5523;48.0;-38.21;-0.79;-11.51;47.34;45.82;68.25;5.0;37.905;39.468933;-0.34098;69.3;NaN;;17.717;;0 / 20;639;2021-10-20 00:26:13:259
8.2961;-5.5481;1.713;-5.454;-7.9487;1.81;0.2716;0.9016;-2.1251;0.6432;-0.3435;0.5523;48.0;-38.21;-0.79;-11.51;47.34;45.82;68.25;5.0;37.905;39.468933;-0.34098;69.3;NaN;;17.717;;0 / 20;645;2021-10-20 00:26:13:265
8.2961;-5.5481;1.713;-5.454;-7.9487;1.81;0.2716;0.9016;-2.1251;0.6432;-0.3435;0.5523;48.0;-38.21;-0.79;-11.51;47.34;45.82;68.25;5.0;37.905;39.468933;-0.34098;69.3;NaN;;17.717;;0 / 20;649;2021-10-20 00:26:13:269
8.2961;-5.5481;1.713;-6.0717;-7.6567;0.8236;0.2716;0.9016;-2.1251;0.6432;-0.3435;0.5523;48.0;-38.21;-0.79;-11.51;47.34;45.82;68.25;5.0;37.905;39.468933;-0.34098;69.3;NaN;;17.717;;0 / 20;655;2021-10-20 00:26:13:275
7.125;-5.862;0.6941;-6.0717;-7.6567;0.8236;0.2716;0.9016;-2.1251;0.6432;-0.3435;0.5523;48.0;-38.34;-1.09;-11.7;31.71;51.33;82.28;5.0;37.905;39.468933;-0.34098;69.3;NaN;;17.717;;0 / 20;660;2021-10-20 00:26:13:280
7.125;-5.862;0.6941;-6.0717;-7.6567;0.8236;0.2716;0.9016;-2.1251;0.6432;-0.3435;0.5523;48.0;-38.34;-1.09;-11.7;31.71;51.33;82.28;5.0;37.905;39.468933;-0.34098;69.3;NaN;;17.717;;0 / 20;665;2021-10-20 00:26:13:285
7.125;-5.862;0.6941;-6.6894;-7.1539;0.5459;1.0864;0.598;-0.4188;0.6432;-0.3435;0.5523;48.0;-38.34;-1.09;-11.7;31.71;51.33;82.28;5.0;37.905;39.468933;-0.34098;69.3;NaN;;17.717;;0 / 20;670;2021-10-20 00:26:13:290
7.2671;-6.747;0.5171;-6.6894;-7.1539;0.5459;1.0864;0.598;-0.4188;0.6432;-0.3435;0.5523;48.0;-38.34;-1.09;-11.7;31.71;51.33;82.28;5.0;37.905;39.468933;-0.34098;69.3;NaN;;17.717;;0 / 20;675;2021-10-20 00:26:13:295
7.2671;-6.747;0.5171;-6.6894;-7.1539;0.5459;1.0864;0.598;-0.4188;0.6432;-0.3435;0.5523;48.0;-38.34;-1.39;-11.64;31.71;51.33;82.28;5.0;37.905;39.468933;-0.34098;69.3;NaN;;17.717;;0 / 20;680;2021-10-20 00:26:13:300
7.2671;-6.747;0.5171;-6.5984;-7.2305;0.5794;0.6191;1.4521;-0.3063;0.6432;-0.3435;0.5523;48.0;-38.34;-1.39;-11.64;31.71;51.33;82.28;5.0;37.905;39.468933;-0.34098;69.3;NaN;;17.717;;0 / 20;685;2021-10-20 00:26:13:305
7.7861;-6.7901;0.6671;-6.5984;-7.2305;0.5794;0.6191;1.4521;-0.3063;0.6432;-0.3435;0.5523;48.0;-38.34;-1.39;-11.64;31.71;51.33;82.28;5.0;37.905;39.468933;-0.34098;69.3;NaN;;17.717;;0 / 20;690;2021-10-20 00:26:13:310
7.7861;-6.7901;0.6671;-6.5984;-7.2305;0.5794;0.6191;1.4521;-0.3063;0.6432;-0.3435;0.5523;48.0;-38.34;-1.39;-11.64;31.71;51.33;82.28;5.0;37.905;39.468933;-0.34098;69.3;NaN;;17.717;;0 / 20;695;2021-10-20 00:26:13:315
7.508;-6.2111;1.457;-6.11;-7.5274;1.4557;0.6191;1.4521;-0.3063;1.134;-0.2482;0.6086;48.0;-38.21;-1.5;-11.46;28.3;47.51;84.98;5.0;37.905;39.468933;-0.34098;69.3;NaN;;17.717;;0 / 20;700;2021-10-20 00:26:13:320
7.508;-6.2111;1.457;-6.11;-7.5274;1.4557;0.6191;1.4521;-0.3063;1.134;-0.2482;0.6086;48.0;-38.21;-1.5;-11.46;28.3;47.51;84.98;5.0;37.905;39.468933;-0.34098;69.3;NaN;;17.717;;0 / 20;705;2021-10-20 00:26:13:325
7.508;-6.2111;1.457;-6.4931;-7.1395;1.7526;0.444;0.5703;-1.1467;1.134;-0.2482;0.6086;48.0;-38.21;-1.5;-11.46;28.3;47.51;84.98;5.0;37.905;39.468933;-0.34098;69.3;NaN;;17.717;;0 / 20;710;2021-10-20 00:26:13:330
7.1111;-5.986;1.7321;-6.4931;-7.1395;1.7526;0.444;0.5703;-1.1467;1.134;-0.2482;0.6086;48.0;-38.21;-1.5;-11.46;28.3;47.51;84.98;5.0;37.905;39.468933;-0.34098;69.3;NaN;;17.717;;0 / 20;715;2021-10-20 00:26:13:335
7.1111;-5.986;1.7321;-6.4931;-7.1395;1.7526;0.444;0.5703;-1.1467;1.134;-0.2482;0.6086;48.0;-38.21;-1.74;-11.16;28.3;47.51;84.98;5.0;37.905;39.468933;-0.34098;69.3;NaN;;17.717;;0 / 20;720;2021-10-20 00:26:13:340
7.1111;-5.986;1.7321;-4.8507;-8.4036;1.4365;0.6398;-0.0575;-1.1984;1.1785;-0.2167;0.5737;48.0;-38.21;-1.74;-11.16;28.3;47.51;84.98;5.0;37.905;39.468933;-0.34098;69.3;NaN;;17.717;;0 / 20;725;2021-10-20 00:26:13:345
8.04;-4.9421;1.4261;-4.8507;-8.4036;1.4365;0.6398;-0.0575;-1.1984;1.1785;-0.2167;0.5737;48.0;-38.21;-1.74;-11.16;28.3;47.51;84.98;5.0;37.905;39.468933;-0.34098;69.3;NaN;;17.717;;0 / 20;730;2021-10-20 00:26:13:350
8.04;-4.9421;1.4261;-4.8507;-8.4036;1.4365;0.6398;-0.0575;-1.1984;1.1785;-0.2167;0.5737;48.0;-38.21;-1.74;-11.16;28.3;47.51;84.98;5.0;37.905;39.468933;-0.34098;69.3;NaN;;17.717;;0 / 20;735;2021-10-20 00:26:13:355
8.04;-4.9421;1.4261;-6.0908;-7.5322;1.5419;0.5808;-0.0087;-1.003;1.1408;-0.1906;0.5316;48.0;-38.21;-2.04;-11.04;37.8;58.95;73.5;5.0;37.905;39.468933;-0.34098;69.3;NaN;;17.717;;0 / 20;740;2021-10-20 00:26:13:360
7.439;-5.943;1.4291;-6.0908;-7.5322;1.5419;0.5808;-0.0087;-1.003;1.1408;-0.1906;0.5316;48.0;-38.21;-2.04;-11.04;37.8;58.95;73.5;5.0;37.905;39.468933;-0.34098;69.3;NaN;;17.717;;0 / 20;744;2021-10-20 00:26:13:364
7.439;-5.943;1.4291;-6.0908;-7.5322;1.5419;0.5808;-0.0087;-1.003;1.1408;-0.1906;0.5316;48.0;-38.21;-2.04;-11.04;37.8;58.95;73.5;5.0;37.905;39.468933;-0.34098;69.3;NaN;;17.717;;0 / 20;750;2021-10-20 00:26:13:370
7.439;-5.943;1.4291;-6.0908;-7.5322;1.5419;0.5808;-0.0087;-1.003;1.1408;-0.1906;0.5316;48.0;-38.21;-2.04;-11.04;37.8;58.95;73.5;5.0;37.905;39.468933;-0.34098;69.3;NaN;;17.717;;0 / 20;754;2021-10-20 00:26:13:374
8.0921;-5.586;1.0691;-5.5976;-7.9823;1.0822;0.5808;-0.0087;-1.003;1.1408;-0.1906;0.5316;48.0;-38.1;-2.34;-11.04;37.8;58.95;73.5;5.0;37.905;39.468933;-0.34098;69.3;NaN;;17.717;;0 / 20;760;2021-10-20 00:26:13:380
8.0921;-5.586;1.0691;-5.5976;-7.9823;1.0822;0.5808;-0.0087;-1.003;1.1408;-0.1906;0.5316;48.0;-38.1;-2.34;-11.04;37.8;58.95;73.5;5.0;37.905;39.468933;-0.34098;69.3;NaN;;17.717;;0 / 20;765;2021-10-20 00:26:13:385
8.0921;-5.586;1.0691;-5.5976;-7.9823;1.0822;0.5808;-0.0087;-1.003;1.1408;-0.1906;0.5316;48.0;-38.1;-2.34;-11.04;37.8;58.95;73.5;5.0;37.905;39.468933;-0.34098;69.3;NaN;;17.717;;0 / 20;770;2021-10-20 00:26:13:390
8.0681;-5.577;1.067;-5.5402;-8.0254;1.0582;-0.1527;-0.1941;-0.4781;1.0021;-0.1702;0.4707;48.0;-38.1;-2.34;-11.04;37.8;58.95;73.5;5.0;37.905;39.468933;-0.34098;69.3;NaN;;17.717;;0 / 20;775;2021-10-20 00:26:13:395
8.0681;-5.577;1.067;-5.5402;-8.0254;1.0582;-0.1527;-0.1941;-0.4781;1.0021;-0.1702;0.4707;48.0;-38.16;-2.4;-11.04;32.92;54.9;79.19;5.0;37.905;39.468933;-0.34098;69.3;NaN;;17.717;;0 / 20;780;2021-10-20 00:26:13:400
8.0681;-5.577;1.067;-5.5402;-8.0254;1.0582;-0.1527;-0.1941;-0.4781;1.0021;-0.1702;0.4707;48.0;-38.16;-2.4;-11.04;32.92;54.9;79.19;5.0;37.905;39.468933;-0.34098;69.3;NaN;;17.717;;0 / 20;784;2021-10-20 00:26:13:404
8.2241;-5.4641;1.0121;-5.3247;-8.1786;0.9768;-0.269;-0.3006;-0.3373;0.8132;-0.1409;0.3121;48.0;-38.16;-2.4;-11.04;32.92;54.9;79.19;5.0;37.905;39.468933;-0.34098;69.3;NaN;;17.717;;0 / 20;790;2021-10-20 00:26:13:410
8.2241;-5.4641;1.0121;-5.3247;-8.1786;0.9768;-0.269;-0.3006;-0.3373;0.8132;-0.1409;0.3121;48.0;-38.16;-2.4;-11.04;32.92;54.9;79.19;5.0;37.905;39.468933;-0.34098;69.3;NaN;;17.717;;0 / 20;795;2021-10-20 00:26:13:415
8.495;-5.4041;0.897;-5.2481;-8.2408;0.8619;-0.683;-0.524;-0.1354;0.6079;-0.1226;0.1772;48.0;-38.1;-2.59;-11.04;32.92;54.9;79.19;5.0;37.905;39.468933;-0.34098;69.3;NaN;;17.717;;0 / 20;801;2021-10-20 00:26:13:421
8.495;-5.4041;0.897;-5.2481;-8.2408;0.8619;-0.683;-0.524;-0.1354;0.6079;-0.1226;0.1772;48.0;-38.1;-2.59;-11.04;32.92;54.9;79.19;5.0;37.905;39.468933;-0.34098;69.3;NaN;;17.717;;0 / 20;805;2021-10-20 00:26:13:425
8.495;-5.4041;0.897;-5.2481;-8.2408;0.8619;-0.683;-0.524;-0.1354;0.6079;-0.1226;0.1772;48.0;-38.1;-2.59;-11.04;32.92;54.9;79.19;5.0;37.905;39.468933;-0.34098;69.3;NaN;;17.717;;0 / 20;810;2021-10-20 00:26:13:430
8.387;-5.349;0.569;-5.2481;-8.2648;0.5794;-0.683;-0.524;-0.1354;0.6079;-0.1226;0.1772;48.0;-38.1;-2.59;-11.04;32.92;54.9;79.19;5.0;37.905;39.468933;-0.34098;69.3;NaN;;17.717;;0 / 20;814;2021-10-20 00:26:13:434
8.387;-5.349;0.569;-5.2481;-8.2648;0.5794;-0.683;-0.524;-0.1354;0.5261;-0.1085;0.1103;48.0;-37.91;-2.7;-11.16;27.35;57.43;83.7;5.0;37.905;39.468933;-0.34098;69.3;NaN;;17.717;;0 / 20;820;2021-10-20 00:26:13:440
8.387;-5.349;0.569;-5.2481;-8.2648;0.5794;-0.683;-0.524;-0.1354;0.5261;-0.1085;0.1103;47.0;-37.91;-2.7;-11.16;27.35;57.43;83.7;5.0;37.905;39.468933;-0.34098;69.3;NaN;;17.717;;0 / 20;825;2021-10-20 00:26:13:445
8.279;-5.237;0.509;-5.2481;-8.2648;0.5842;-0.5581;-0.5741;0.1954;0.5261;-0.1085;0.1103;47.0;-37.91;-2.7;-11.16;27.35;57.43;83.7;5.0;37.905;39.468933;-0.34098;69.3;NaN;;17.717;;0 / 20;829;2021-10-20 00:26:13:449
8.279;-5.237;0.509;-5.2481;-8.2648;0.5842;-0.5581;-0.5741;0.1954;0.5261;-0.1085;0.1103;47.0;-37.91;-2.7;-11.16;27.35;57.43;83.7;5.0;37.905;39.468933;-0.34098;69.3;NaN;;17.717;;0 / 20;835;2021-10-20 00:26:13:455
8.279;-5.237;0.509;-5.2481;-8.2648;0.5842;-0.5581;-0.5741;0.1954;0.4514;-0.087;0.0061;47.0;-38.1;-2.7;-11.34;27.35;57.43;83.7;5.0;37.905;39.468933;-0.34098;69.3;NaN;;17.717;;0 / 20;840;2021-10-20 00:26:13:460
8.207;-5.517;1.017;-5.5258;-8.0158;1.1779;-0.4076;-0.5951;0.1667;0.4514;-0.087;0.0061;47.0;-38.1;-2.7;-11.34;27.35;57.43;83.7;5.0;35.367;39.468933;-0.34098;69.3;NaN;;17.717;;0 / 20;844;2021-10-20 00:26:13:464
8.207;-5.517;1.017;-5.5258;-8.0158;1.1779;-0.4076;-0.5951;0.1667;0.4514;-0.087;0.0061;47.0;-38.1;-2.7;-11.34;27.35;57.43;83.7;5.0;35.367;39.468933;-0.34098;69.3;NaN;;17.717;;0 / 20;850;2021-10-20 00:26:13:470
8.207;-5.517;1.017;-5.5258;-8.0158;1.1779;-0.4076;-0.5951;0.1667;0.4514;-0.087;0.0061;47.0;-38.1;-2.7;-11.34;27.35;57.43;83.7;5.0;35.367;39.468933;-0.34098;69.3;NaN;;17.717;;0 / 20;854;2021-10-20 00:26:13:474
8.387;-5.9021;1.407;-5.4636;-8.0493;1.245;-0.6725;0.1691;-0.7646;0.4514;-0.087;0.0061;47.0;-38.16;-2.46;-11.46;34.33;54.82;77.97;5.0;35.367;39.468933;-0.34098;69.3;NaN;;17.717;;0 / 20;860;2021-10-20 00:26:13:480
8.387;-5.9021;1.407;-5.4636;-8.0493;1.245;-0.6725;0.1691;-0.7646;0.3986;-0.0708;-0.0538;47.0;-38.16;-2.46;-11.46;34.33;54.82;77.97;5.0;35.367;39.468933;-0.34098;69.3;NaN;;17.717;;0 / 20;864;2021-10-20 00:26:13:484
8.387;-5.9021;1.407;-5.4636;-8.0493;1.245;-0.6725;0.1691;-0.7646;0.3986;-0.0708;-0.0538;47.0;-38.16;-2.46;-11.46;34.33;54.82;77.97;5.0;35.367;39.468933;-0.34098;69.3;NaN;;17.717;;0 / 20;870;2021-10-20 00:26:13:490
7.7171;-5.301;1.014;-5.5641;-8.0158;0.9864;-0.6725;0.1691;-0.7646;0.3986;-0.0708;-0.0538;47.0;-38.16;-2.46;-11.46;34.33;54.82;77.97;5.0;35.367;39.468933;-0.34098;69.3;NaN;;17.717;;0 / 20;875;2021-10-20 00:26:13:495
7.7171;-5.301;1.014;-5.5641;-8.0158;0.9864;-0.6725;0.1691;-0.7646;0.3986;-0.0708;-0.0538;47.0;-38.21;-2.16;-11.7;34.33;54.82;77.97;5.0;35.367;39.468933;-0.34098;69.3;NaN;;17.717;;0 / 20;879;2021-10-20 00:26:13:499
7.7171;-5.301;1.014;-5.5641;-8.0158;0.9864;-0.6725;0.1691;-0.7646;0.3986;-0.0708;-0.0538;47.0;-38.21;-2.16;-11.7;34.33;54.82;77.97;5.0;35.367;39.468933;-0.34098;69.3;NaN;;17.717;;0 / 20;885;2021-10-20 00:26:13:505
7.968;-5.6029;0.531;-5.6455;-8.011;0.3831;0.0759;-0.4629;-0.0672;0.3329;-0.0566;-0.102;47.0;-38.21;-2.16;-11.7;34.33;54.82;77.97;5.0;35.367;39.468933;-0.34098;69.3;NaN;;17.717;;0 / 20;890;2021-10-20 00:26:13:510
7.968;-5.6029;0.531;-5.6455;-8.011;0.3831;0.0759;-0.4629;-0.0672;0.3329;-0.0566;-0.102;47.0;-38.21;-2.16;-11.7;34.33;54.82;77.97;5.0;35.367;39.468933;-0.34098;69.3;NaN;;17.717;;0 / 20;895;2021-10-20 00:26:13:515
7.647;-5.9239;0.1241;-6.0573;-7.7141;0.0814;0.0519;0.0664;0.7272;0.22;-0.0483;-0.1375;47.0;-38.04;-2.29;-11.81;26.52;54.76;86.12;5.0;35.367;39.468933;-0.34098;69.3;NaN;;17.717;;0 / 20;900;2021-10-20 00:26:13:520
7.647;-5.9239;0.1241;-6.0573;-7.7141;0.0814;0.0519;0.0664;0.7272;0.22;-0.0483;-0.1375;47.0;-38.04;-2.29;-11.81;26.52;54.76;86.12;5.0;35.367;39.468933;-0.34098;69.3;NaN;;17.717;;0 / 20;905;2021-10-20 00:26:13:525
7.647;-5.9239;0.1241;-6.0573;-7.7141;0.0814;0.0519;0.0664;0.7272;0.22;-0.0483;-0.1375;47.0;-38.04;-2.29;-11.81;26.52;54.76;86.12;5.0;35.367;39.468933;-0.34098;69.3;NaN;;17.717;;0 / 20;909;2021-10-20 00:26:13:529
7.523;-5.5481;-0.0739;-5.77;-7.9296;-0.1293;0.0519;0.0664;0.7272;0.22;-0.0483;-0.1375;47.0;-38.04;-2.29;-11.81;26.52;54.76;86.12;5.0;35.367;39.468933;-0.34098;69.3;NaN;;17.717;;0 / 20;915;2021-10-20 00:26:13:535
7.523;-5.5481;-0.0739;-5.77;-7.9296;-0.1293;0.0519;0.0664;0.7272;0.0835;-0.0432;-0.1541;47.0;-37.74;-2.16;-12.06;26.52;54.76;86.12;5.0;35.367;39.468933;-0.34098;69.3;NaN;;17.717;;0 / 20;921;2021-10-20 00:26:13:541
7.523;-5.5481;-0.0739;-5.77;-7.9296;-0.1293;0.0519;0.0664;0.7272;0.0835;-0.0432;-0.1541;47.0;-37.74;-2.16;-12.06;26.52;54.76;86.12;5.0;35.367;39.468933;-0.34098;69.3;NaN;;17.717;;0 / 20;924;2021-10-20 00:26:13:544
7.659;-5.469;-0.203;-5.6695;-8.0014;-0.1532;0.3157;-0.3029;1.0298;0.0835;-0.0432;-0.1541;47.0;-37.74;-2.16;-12.06;26.52;54.76;86.12;5.0;35.367;39.468933;-0.34098;69.3;NaN;;17.717;;0 / 20;930;2021-10-20 00:26:13:550
7.659;-5.469;-0.203;-5.6695;-8.0014;-0.1532;0.3157;-0.3029;1.0298;0.0835;-0.0432;-0.1541;47.0;-37.74;-2.16;-12.06;26.52;54.76;86.12;5.0;35.367;39.468933;-0.34098;69.3;NaN;;17.717;;0 / 20;935;2021-10-20 00:26:13:555
7.659;-5.469;-0.203;-5.6695;-8.0014;-0.1532;0.3157;-0.3029;1.0298;0.0835;-0.0432;-0.1541;47.0;-37.8;-2.16;-12.36;20.02;54.67;91.55;5.0;35.367;39.468933;-0.34098;69.3;NaN;;17.717;;0 / 20;940;2021-10-20 00:26:13:560
7.9661;-5.512;0.2531;-5.5881;-8.0541;0.316;0.0756;-0.2521;0.8814;0.0835;-0.0432;-0.1541;47.0;-37.8;-2.16;-12.36;20.02;54.67;91.55;5.0;35.367;39.468933;-0.34098;69.3;NaN;;17.717;;0 / 20;945;2021-10-20 00:26:13:565
7.9661;-5.512;0.2531;-5.5881;-8.0541;0.316;0.0756;-0.2521;0.8814;-0.054;-0.0378;-0.1562;47.0;-37.8;-2.16;-12.36;20.02;54.67;91.55;5.0;35.367;39.468933;-0.34098;69.3;NaN;;17.717;;0 / 20;950;2021-10-20 00:26:13:570
7.9661;-5.512;0.2531;-5.5881;-8.0541;0.316;0.0756;-0.2521;0.8814;-0.054;-0.0378;-0.1562;47.0;-37.8;-2.16;-12.36;20.02;54.67;91.55;5.0;35.367;39.468933;-0.34098;69.3;NaN;;17.717;;0 / 20;955;2021-10-20 00:26:13:575
8.1881;-5.6201;0.5981;-5.5162;-8.0828;0.6464;-0.2751;-0.1641;0.3555;-0.1555;-0.0264;-0.1438;47.0;-37.91;-2.04;-12.54;20.02;54.67;91.55;5.0;35.367;39.468933;-0.34098;69.3;NaN;;17.717;;0 / 20;960;2021-10-20 00:26:13:580
8.1881;-5.6201;0.5981;-5.5162;-8.0828;0.6464;-0.2751;-0.1641;0.3555;-0.1555;-0.0264;-0.1438;47.0;-37.91;-2.04;-12.54;20.02;54.67;91.55;5.0;35.367;39.468933;-0.34098;69.3;NaN;;17.717;;0 / 20;964;2021-10-20 00:26:13:584
8.1881;-5.6201;0.5981;-5.5162;-8.0828;0.6464;-0.2751;-0.1641;0.3555;-0.1555;-0.0264;-0.1438;47.0;-37.91;-2.04;-12.54;20.02;54.67;91.55;5.0;35.367;39.468933;-0.34098;69.3;NaN;;17.717;;0 / 20;971;2021-10-20 00:26:13:591
8.183;-5.6801;0.983;-5.545;-8.0302;0.9481;-0.2751;-0.1641;0.3555;-0.1555;-0.0264;-0.1438;47.0;-37.91;-2.04;-12.54;20.02;54.67;91.55;5.0;35.367;39.468933;-0.34098;69.3;NaN;;17.717;;0 / 20;975;2021-10-20 00:26:13:595
8.183;-5.6801;0.983;-5.545;-8.0302;0.9481;-0.2751;-0.1641;0.3555;-0.1991;-0.006;-0.1276;47.0;-37.8;-1.86;-12.36;33.19;54.99;80.3;5.0;35.367;39.468933;-0.34098;69.3;NaN;;17.717;;0 / 20;980;2021-10-20 00:26:13:600
8.183;-5.6801;0.983;-5.545;-8.0302;0.9481;-0.2751;-0.1641;0.3555;-0.1991;-0.006;-0.1276;47.0;-37.8;-1.86;-12.36;33.19;54.99;80.3;5.0;35.367;39.468933;-0.34098;69.3;NaN;;17.717;;0 / 20;985;2021-10-20 00:26:13:605
8.456;-5.3711;0.8831;-5.2672;-8.2265;0.8667;-0.274;-0.0792;-0.1178;-0.1991;-0.006;-0.1276;47.0;-37.8;-1.86;-12.36;33.19;54.99;80.3;5.0;35.367;39.468933;-0.34098;69.3;NaN;;17.717;;0 / 20;990;2021-10-20 00:26:13:610
8.456;-5.3711;0.8831;-5.2672;-8.2265;0.8667;-0.274;-0.0792;-0.1178;-0.1991;-0.006;-0.1276;47.0;-37.56;-1.56;-12.36;33.19;54.99;80.3;5.0;35.367;39.468933;-0.34098;69.3;NaN;;17.717;;0 / 20;995;2021-10-20 00:26:13:615
8.456;-5.3711;0.8831;-5.0422;-8.3653;0.8619;-0.574;-0.4455;-0.0445;-0.1991;-0.006;-0.1276;47.0;-37.56;-1.56;-12.36;33.19;54.99;80.3;5.0;35.367;39.468933;-0.34098;69.3;NaN;;17.717;;0 / 20;1000;2021-10-20 00:26:13:620
8.672;-5.139;0.885;-5.0422;-8.3653;0.8619;-0.574;-0.4455;-0.0445;-0.217;0.0176;-0.1184;47.0;-37.56;-1.56;-12.36;33.19;54.99;80.3;5.0;35.367;39.468933;-0.34098;69.3;NaN;;17.717;;0 / 20;1005;2021-10-20 00:26:13:625
8.672;-5.139;0.885;-5.0422;-8.3653;0.8619;-0.574;-0.4455;-0.0445;-0.217;0.0176;-0.1184;47.0;-37.56;-1.56;-12.36;33.19;54.99;80.3;5.0;35.367;39.468933;-0.34098;69.3;NaN;;17.717;;0 / 20;1009;2021-10-20 00:26:13:629
8.672;-5.139;0.885;-4.8171;-8.4994;0.8523;-0.574;-0.4455;-0.0445;-0.217;0.0176;-0.1184;47.0;-37.5;-1.69;-12.36;32.41;60.08;79.97;5.0;35.367;39.468933;-0.34098;69.3;NaN;;17.717;;0 / 20;1015;2021-10-20 00:26:13:635
8.921;-5.021;0.854;-4.8171;-8.4994;0.8523;-0.574;-0.4455;-0.0445;-0.217;0.0176;-0.1184;47.0;-37.5;-1.69;-12.36;32.41;60.08;79.97;5.0;35.367;39.468933;-0.34098;69.3;NaN;;17.717;;0 / 20;1020;2021-10-20 00:26:13:640
8.921;-5.021;0.854;-4.8171;-8.4994;0.8523;-0.574;-0.4455;-0.0445;-0.2688;0.0327;-0.1154;47.0;-37.5;-1.69;-12.36;32.41;60.08;79.97;5.0;35.367;39.468933;-0.34098;69.3;NaN;;17.717;;0 / 20;1025;2021-10-20 00:26:13:645
8.921;-5.021;0.854;-4.8267;-8.5138;0.6464;-0.9019;-0.6904;-0.0836;-0.2688;0.0327;-0.1154;47.0;-37.5;-1.69;-12.36;32.41;60.08;79.97;5.0;35.367;39.468933;-0.34098;69.3;NaN;;17.717;;0 / 20;1029;2021-10-20 00:26:13:649
9.0191;-5.088;0.641;-4.8267;-8.5138;0.6464;-0.9019;-0.6904;-0.0836;-0.2688;0.0327;-0.1154;47.0;-37.5;-1.69;-12.36;32.41;60.08;79.97;5.0;35.367;39.468933;-0.34098;69.3;NaN;;17.717;;0 / 20;1035;2021-10-20 00:26:13:655
9.0191;-5.088;0.641;-4.8267;-8.5138;0.6464;-0.9019;-0.6904;-0.0836;-0.2688;0.0327;-0.1154;47.0;-37.31;-1.69;-12.41;32.41;60.08;79.97;5.0;35.367;39.468933;-0.34098;69.3;NaN;;17.717;;0 / 20;1040;2021-10-20 00:26:13:660
9.0191;-5.088;0.641;-4.6926;-8.6096;0.2729;-1.0659;-0.6626;0.2419;-0.2688;0.0327;-0.1154;47.0;-37.31;-1.69;-12.41;32.41;60.08;79.97;5.0;35.367;39.468933;-0.34098;69.3;NaN;;17.717;;0 / 20;1045;2021-10-20 00:26:13:665
9.083;-4.926;0.2651;-4.6926;-8.6096;0.2729;-1.0659;-0.6626;0.2419;-0.3147;0.0452;-0.1207;47.0;-37.31;-1.69;-12.41;32.41;60.08;79.97;5.0;35.367;39.468933;-0.34098;69.3;NaN;;17.717;;0 / 20;1049;2021-10-20 00:26:13:669
9.083;-4.926;0.2651;-4.6926;-8.6096;0.2729;-1.0659;-0.6626;0.2419;-0.3147;0.0452;-0.1207;47.0;-37.31;-1.69;-12.41;32.41;60.08;79.97;5.0;35.367;39.468933;-0.34098;69.3;NaN;;17.717;;0 / 20;1055;2021-10-20 00:26:13:675
9.083;-4.926;0.2651;-4.8171;-8.5425;0.0239;-1.0908;-0.6984;0.649;-0.3414;0.0627;-0.1497;47.0;-37.44;-1.44;-12.41;24.27;61.37;86.67;5.0;35.367;39.468933;-0.34098;69.3;NaN;;17.717;;0 / 20;1059;2021-10-20 00:26:13:679
9.0521;-5.119;0.038;-4.8171;-8.5425;0.0239;-1.0908;-0.6984;0.649;-0.3414;0.0627;-0.1497;47.0;-37.44;-1.44;-12.41;24.27;61.37;86.67;5.0;35.367;39.468933;-0.34098;69.3;NaN;;17.717;;0 / 20;1065;2021-10-20 00:26:13:685
9.0521;-5.119;0.038;-4.8171;-8.5425;0.0239;-1.0908;-0.6984;0.649;-0.3414;0.0627;-0.1497;47.0;-37.44;-1.44;-12.41;24.27;61.37;86.67;5.0;35.367;39.468933;-0.34098;69.3;NaN;;17.717;;0 / 20;1070;2021-10-20 00:26:13:690
9.0521;-5.119;0.038;-4.9991;-8.4372;0.1053;-1.0908;-0.6984;0.649;-0.3414;0.0627;-0.1497;47.0;-37.44;-1.44;-12.41;24.27;61.37;86.67;5.0;35.367;39.468933;-0.34098;69.3;NaN;;17.717;;0 / 20;1075;2021-10-20 00:26:13:695
8.8181;-5.246;0.131;-4.9991;-8.4372;0.1053;-1.0908;-0.6984;0.649;-0.3414;0.0627;-0.1497;47.0;-37.56;-0.96;-12.41;24.27;61.37;86.67;5.0;35.367;39.468933;-0.34098;69.3;NaN;;17.717;;0 / 20;1079;2021-10-20 00:26:13:699
8.8181;-5.246;0.131;-4.9991;-8.4372;0.1053;-1.0908;-0.6984;0.649;-0.3414;0.0627;-0.1497;47.0;-37.56;-0.96;-12.41;24.27;61.37;86.67;5.0;35.367;39.468933;-0.34098;69.3;NaN;;17.717;;0 / 20;1085;2021-10-20 00:26:13:705
8.8181;-5.246;0.131;-4.9273;-8.4755;0.1437;-0.8359;-0.4102;0.6088;-0.3611;0.0892;-0.2181;47.0;-37.56;-0.96;-12.41;24.27;61.37;86.67;5.0;35.367;39.468933;-0.34098;69.3;NaN;;17.717;;0 / 20;1090;2021-10-20 00:26:13:710
8.904;-5.124;0.2051;-4.9273;-8.4755;0.1437;-0.8359;-0.4102;0.6088;-0.3611;0.0892;-0.2181;47.0;-37.56;-0.96;-12.41;24.27;61.37;86.67;5.0;35.367;39.468933;-0.34098;69.3;NaN;;17.717;;0 / 20;1095;2021-10-20 00:26:13:715
8.904;-5.124;0.2051;-4.7932;-8.5521;0.2059;-0.9432;-0.5219;0.5033;-0.3708;0.1111;-0.2713;47.0;-37.44;-0.66;-12.3;22.76;59.82;88.33;5.0;35.367;39.468933;-0.34098;69.3;NaN;;17.717;;0 / 20;1100;2021-10-20 00:26:13:720
8.904;-5.124;0.2051;-4.7932;-8.5521;0.2059;-0.9432;-0.5219;0.5033;-0.3708;0.1111;-0.2713;47.0;-37.44;-0.66;-12.3;22.76;59.82;88.33;5.0;35.367;39.468933;-0.34098;69.3;NaN;;17.717;;0 / 20;1105;2021-10-20 00:26:13:725
9.093;-5.009;0.275;-4.7932;-8.5521;0.2059;-0.9432;-0.5219;0.5033;-0.3708;0.1111;-0.2713;47.0;-37.44;-0.66;-12.3;22.76;59.82;88.33;5.0;35.367;39.468933;-0.34098;69.3;NaN;;17.717;;0 / 20;1110;2021-10-20 00:26:13:730
9.093;-5.009;0.275;-4.7022;-8.6;0.3208;-0.9432;-0.5219;0.5033;-0.3708;0.1111;-0.2713;47.0;-37.44;-0.66;-12.3;22.76;59.82;88.33;5.0;35.367;39.468933;-0.34098;69.3;NaN;;17.717;;0 / 20;1114;2021-10-20 00:26:13:734
9.093;-5.009;0.275;-4.7022;-8.6;0.3208;-0.9432;-0.5219;0.5033;-0.3895;0.1295;-0.3158;47.0;-37.26;-0.36;-12.3;22.76;59.82;88.33;5.0;35.367;39.468933;-0.34098;69.3;NaN;;17.717;;0 / 20;1120;2021-10-20 00:26:13:740
9.141;-5.031;0.44;-4.7022;-8.6;0.3208;-0.9432;-0.5219;0.5033;-0.3895;0.1295;-0.3158;47.0;-37.26;-0.36;-12.3;22.76;59.82;88.33;5.0;35.367;39.468933;-0.34098;69.3;NaN;;17.717;;0 / 20;1124;2021-10-20 00:26:13:744
9.141;-5.031;0.44;-4.7118;-8.5904;0.4501;-1.0597;-0.5719;0.3309;-0.3895;0.1295;-0.3158;47.0;-37.26;-0.36;-12.3;22.76;59.82;88.33;5.0;35.367;39.468933;-0.34098;69.3;NaN;;17.717;;0 / 20;1130;2021-10-20 00:26:13:750
9.141;-5.031;0.44;-4.7118;-8.5904;0.4501;-1.0597;-0.5719;0.3309;-0.3895;0.1295;-0.3158;47.0;-37.26;-0.36;-12.3;22.76;59.82;88.33;5.0;35.367;39.468933;-0.34098;69.3;NaN;;17.717;;0 / 20;1135;2021-10-20 00:26:13:755
9.117;-5.0411;0.5051;-4.7118;-8.5904;0.4501;-1.0597;-0.5719;0.3309;-0.3895;0.1295;-0.3158;47.0;-37.31;-0.06;-12.41;26.32;61.15;84.54;5.0;35.367;39.468933;-0.34098;69.3;NaN;;17.717;;0 / 20;1140;2021-10-20 00:26:13:760
9.117;-5.0411;0.5051;-4.8459;-8.5042;0.565;-1.0627;-0.4649;0.1309;-0.4242;0.1485;-0.3602;47.0;-37.31;-0.06;-12.41;26.32;61.15;84.54;5.0;35.367;39.468933;-0.34098;69.3;NaN;;17.717;;0 / 20;1144;2021-10-20 00:26:13:764
9.117;-5.0411;0.5051;-4.8459;-8.5042;0.565;-1.0627;-0.4649;0.1309;-0.4242;0.1485;-0.3602;47.0;-37.31;-0.06;-12.41;26.32;61.15;84.54;5.0;35.367;39.468933;-0.34098;69.3;NaN;;17.717;;0 / 20;1150;2021-10-20 00:26:13:770
8.997;-5.263;0.6911;-4.8459;-8.5042;0.565;-1.0627;-0.4649;0.1309;-0.4242;0.1485;-0.3602;47.0;-37.31;-0.06;-12.41;26.32;61.15;84.54;5.0;35.367;39.468933;-0.34098;69.3;NaN;;17.717;;0 / 20;1155;2021-10-20 00:26:13:775
8.997;-5.263;0.6911;-4.9799;-8.418;0.6943;-0.8454;-0.1764;-0.0685;-0.4242;0.1485;-0.3602;57.0;-37.5;0.0;-12.41;26.32;61.15;84.54;5.0;35.367;39.468933;-0.34098;69.3;NaN;;17.717;;0 / 20;1160;2021-10-20 00:26:13:780
8.997;-5.263;0.6911;-4.9799;-8.418;0.6943;-0.8454;-0.1764;-0.0685;-0.4242;0.1485;-0.3602;57.0;-37.5;0.0;-12.41;26.32;61.15;84.54;5.0;35.367;39.468933;-0.34098;69.3;NaN;;17.717;;0 / 20;1164;2021-10-20 00:26:13:784
8.889;-5.2541;0.725;-4.9799;-8.418;0.6943;-0.8454;-0.1764;-0.0685;-0.4449;0.1625;-0.3871;57.0;-37.5;0.0;-12.41;26.32;61.15;84.54;5.0;38.408;39.468933;-0.34098;69.3;NaN;;17.717;;0 / 20;1170;2021-10-20 00:26:13:790
8.889;-5.2541;0.725;-4.9895;-8.418;0.6847;-0.8454;-0.1764;-0.0685;-0.4449;0.1625;-0.3871;57.0;-37.5;0.0;-12.41;26.32;61.15;84.54;5.0;38.408;39.468933;-0.34098;69.3;NaN;;17.717;;0 / 20;1175;2021-10-20 00:26:13:795
8.889;-5.2541;0.725;-4.9895;-8.418;0.6847;-0.8454;-0.1764;-0.0685;-0.4449;0.1625;-0.3871;57.0;-37.44;0.24;-12.41;29.38;59.11;82.19;5.0;38.408;39.468933;-0.34098;69.3;NaN;;17.717;;0 / 20;1180;2021-10-20 00:26:13:800
8.894;-5.2661;0.7871;-4.9895;-8.418;0.6847;-0.8454;-0.1764;-0.0685;-0.4452;0.1655;-0.3739;57.0;-37.44;0.24;-12.41;29.38;59.11;82.19;5.0;38.408;39.468933;-0.34098;69.3;NaN;;17.717;;0 / 20;1186;2021-10-20 00:26:13:806
8.894;-5.2661;0.7871;-4.9608;-8.4276;0.747;-0.7252;-0.121;-0.117;-0.4452;0.1655;-0.3739;57.0;-37.44;0.24;-12.41;29.38;59.11;82.19;5.0;38.408;39.468933;-0.34098;69.3;NaN;;17.717;;0 / 20;1189;2021-10-20 00:26:13:809
8.894;-5.2661;0.7871;-4.9608;-8.4276;0.747;-0.7252;-0.121;-0.117;-0.4452;0.1655;-0.3739;57.0;-37.44;0.24;-12.41;29.38;59.11;82.19;5.0;38.408;39.468933;-0.34098;69.3;NaN;;17.717;;0 / 20;1195;2021-10-20 00:26:13:815
9.0281;-5.1289;0.83;-4.9608;-8.4276;0.747;-0.7252;-0.121;-0.117;-0.4452;0.1655;-0.3739;57.0;-37.44;0.36;-12.6;29.38;59.11;82.19;5.0;38.408;39.468933;-0.34098;69.3;NaN;;17.717;;0 / 20;1200;2021-10-20 00:26:13:820
9.0281;-5.1289;0.83;-4.8267;-8.4994;0.7853;-0.8127;-0.1922;-0.2181;-0.432;0.1645;-0.3457;57.0;-37.44;0.36;-12.6;29.38;59.11;82.19;5.0;38.408;39.468933;-0.34098;69.3;NaN;;17.717;;0 / 20;1205;2021-10-20 00:26:13:825
9.0281;-5.1289;0.83;-4.8267;-8.4994;0.7853;-0.8127;-0.1922;-0.2181;-0.432;0.1645;-0.3457;57.0;-37.44;0.36;-12.6;29.38;59.11;82.19;5.0;38.408;39.468933;-0.34098;69.3;NaN;;17.717;;0 / 20;1210;2021-10-20 00:26:13:830
9.038;-5.1341;0.813;-4.8267;-8.4994;0.7853;-0.8127;-0.1922;-0.2181;-0.432;0.1645;-0.3457;57.0;-37.44;0.36;-12.6;29.38;59.11;82.19;5.0;38.408;39.468933;-0.34098;69.3;NaN;;17.717;;0 / 20;1214;2021-10-20 00:26:13:834
9.038;-5.1341;0.813;-4.8698;-8.4803;0.7518;-0.8358;-0.1591;-0.2894;-0.4085;0.1623;-0.3131;57.0;-37.26;0.54;-12.6;31.74;60.09;80.76;5.0;38.408;39.468933;-0.34098;69.3;NaN;;17.717;;0 / 20;1220;2021-10-20 00:26:13:840
9.038;-5.1341;0.813;-4.8698;-8.4803;0.7518;-0.8358;-0.1591;-0.2894;-0.4085;0.1623;-0.3131;57.0;-37.26;0.54;-12.6;31.74;60.09;80.76;5.0;38.408;39.468933;-0.34098;69.3;NaN;;17.717;;0 / 20;1225;2021-10-20 00:26:13:845
9.035;-5.196;0.773;-4.8698;-8.4803;0.7518;-0.8358;-0.1591;-0.2894;-0.4085;0.1623;-0.3131;57.0;-37.26;0.54;-12.6;31.74;60.09;80.76;5.0;38.408;39.468933;-0.34098;69.3;NaN;;17.717;;0 / 20;1230;2021-10-20 00:26:13:850
9.035;-5.196;0.773;-4.889;-8.4755;0.6847;-0.8358;-0.1591;-0.2894;-0.4085;0.1623;-0.3131;57.0;-37.26;0.54;-12.6;31.74;60.09;80.76;5.0;38.408;39.468933;-0.34098;69.3;NaN;;17.717;;0 / 20;1235;2021-10-20 00:26:13:855
9.035;-5.196;0.773;-4.889;-8.4755;0.6847;-0.8358;-0.1591;-0.2894;-0.4085;0.1623;-0.3131;57.0;-37.31;0.6;-12.66;31.74;60.09;80.76;5.0;38.408;39.468933;-0.34098;69.3;NaN;;17.717;;0 / 20;1240;2021-10-20 00:26:13:860
8.933;-5.191;0.7031;-4.889;-8.4755;0.6847;-0.8358;-0.1591;-0.2894;-0.3862;0.1594;-0.286;57.0;-37.31;0.6;-12.66;31.74;60.09;80.76;5.0;38.408;39.468933;-0.34098;69.3;NaN;;17.717;;0 / 20;1245;2021-10-20 00:26:13:865
8.933;-5.191;0.7031;-4.9129;-8.4659;0.6369;-0.6849;-0.0891;-0.1676;-0.3862;0.1594;-0.286;57.0;-37.31;0.6;-12.66;31.74;60.09;80.76;5.0;38.408;39.468933;-0.34098;69.3;NaN;;17.717;;0 / 20;1250;2021-10-20 00:26:13:870
8.933;-5.191;0.7031;-4.9129;-8.4659;0.6369;-0.6849;-0.0891;-0.1676;-0.3862;0.1594;-0.286;57.0;-37.31;0.6;-12.66;31.74;60.09;80.76;5.0;38.408;39.468933;-0.34098;69.3;NaN;;17.717;;0 / 20;1255;2021-10-20 00:26:13:875
8.856;-5.151;0.5741;-4.9129;-8.4659;0.6369;-0.6849;-0.0891;-0.1676;-0.3862;0.1594;-0.286;57.0;-37.2;0.6;-12.66;29.87;59.67;82.61;5.0;38.408;39.468933;-0.34098;69.3;NaN;;17.717;;0 / 20;1259;2021-10-20 00:26:13:879
8.856;-5.151;0.5741;-4.9464;-8.4563;0.4549;-0.578;-0.0912;-0.0418;-0.3862;0.1594;-0.286;57.0;-37.2;0.6;-12.66;29.87;59.67;82.61;5.0;38.408;39.468933;-0.34098;69.3;NaN;;17.717;;0 / 20;1265;2021-10-20 00:26:13:885
8.858;-5.198;0.461;-4.9464;-8.4563;0.4549;-0.578;-0.0912;-0.0418;-0.3464;0.1559;-0.2577;57.0;-37.2;0.6;-12.66;29.87;59.67;82.61;5.0;38.408;39.468933;-0.34098;69.3;NaN;;17.717;;0 / 20;1269;2021-10-20 00:26:13:889
8.858;-5.198;0.461;-4.9464;-8.4563;0.4549;-0.578;-0.0912;-0.0418;-0.3464;0.1559;-0.2577;57.0;-37.2;0.6;-12.66;29.87;59.67;82.61;5.0;38.408;39.468933;-0.34098;69.3;NaN;;17.717;;0 / 20;1275;2021-10-20 00:26:13:895
8.858;-5.198;0.461;-5.0135;-8.418;0.407;-0.488;0.0386;0.0892;-0.3464;0.1559;-0.2577;57.0;-37.01;0.54;-12.54;29.87;59.67;82.61;5.0;38.408;39.468933;-0.34098;69.3;NaN;;17.717;;0 / 20;1280;2021-10-20 00:26:13:900
8.772;-5.242;0.459;-5.0135;-8.418;0.407;-0.488;0.0386;0.0892;-0.2926;0.1513;-0.227;57.0;-37.01;0.54;-12.54;29.87;59.67;82.61;5.0;38.408;39.468933;-0.34098;69.3;NaN;;17.717;;0 / 20;1285;2021-10-20 00:26:13:905
8.772;-5.242;0.459;-5.0135;-8.418;0.407;-0.488;0.0386;0.0892;-0.2926;0.1513;-0.227;57.0;-37.01;0.54;-12.54;29.87;59.67;82.61;5.0;38.408;39.468933;-0.34098;69.3;NaN;;17.717;;0 / 20;1289;2021-10-20 00:26:13:909
8.772;-5.242;0.459;-5.1236;-8.3558;0.3926;-0.488;0.0386;0.0892;-0.2926;0.1513;-0.227;57.0;-37.01;0.54;-12.54;29.87;59.67;82.61;5.0;38.408;39.468933;-0.34098;69.3;NaN;;17.717;;0 / 20;1295;2021-10-20 00:26:13:915
8.6981;-5.3539;0.44;-5.1236;-8.3558;0.3926;-0.488;0.0386;0.0892;-0.2926;0.1513;-0.227;57.0;-36.96;0.36;-12.6;27.31;58.41;85.62;5.0;38.408;39.468933;-0.34098;69.3;NaN;;17.717;;0 / 20;1300;2021-10-20 00:26:13:920
8.6981;-5.3539;0.44;-5.1236;-8.3558;0.3926;-0.488;0.0386;0.0892;-0.2413;0.1452;-0.199;57.0;-36.96;0.36;-12.6;27.31;58.41;85.62;5.0;38.408;39.468933;-0.34098;69.3;NaN;;17.717;;0 / 20;1305;2021-10-20 00:26:13:925
8.6981;-5.3539;0.44;-5.1236;-8.351;0.407;-0.401;0.2052;0.1293;-0.2413;0.1452;-0.199;57.0;-36.96;0.36;-12.6;27.31;58.41;85.62;5.0;38.408;39.468933;-0.34098;69.3;NaN;;17.717;;0 / 20;1310;2021-10-20 00:26:13:930
8.66;-5.304;0.4571;-5.1236;-8.351;0.407;-0.401;0.2052;0.1293;-0.2413;0.1452;-0.199;57.0;-36.96;0.36;-12.6;27.31;58.41;85.62;5.0;38.408;39.468933;-0.34098;69.3;NaN;;17.717;;0 / 20;1314;2021-10-20 00:26:13:934
8.66;-5.304;0.4571;-5.0135;-8.418;0.4597;-0.3161;0.0964;0.0763;-0.2117;0.1394;-0.1785;57.0;-37.01;0.24;-12.6;27.31;58.41;85.62;5.0;38.408;39.468933;-0.34098;69.3;NaN;;17.717;;0 / 20;1320;2021-10-20 00:26:13:940
8.66;-5.304;0.4571;-5.0135;-8.418;0.4597;-0.3161;0.0964;0.0763;-0.2117;0.1394;-0.1785;57.0;-37.01;0.24;-12.6;27.31;58.41;85.62;5.0;38.408;39.468933;-0.34098;69.3;NaN;;17.717;;0 / 20;1325;2021-10-20 00:26:13:945
8.7671;-5.177;0.495;-5.0135;-8.418;0.4597;-0.3161;0.0964;0.0763;-0.2117;0.1394;-0.1785;57.0;-37.01;0.24;-12.6;27.31;58.41;85.62;5.0;38.408;39.468933;-0.34098;69.3;NaN;;17.717;;0 / 20;1330;2021-10-20 00:26:13:950
8.7671;-5.177;0.495;-5.0087;-8.418;0.4836;-0.3161;0.0964;0.0763;-0.2117;0.1394;-0.1785;57.0;-37.01;0.24;-12.6;27.31;58.41;85.62;5.0;38.408;39.468933;-0.34098;69.3;NaN;;17.717;;0 / 20;1334;2021-10-20 00:26:13:954
8.724;-5.2991;0.545;-5.0087;-8.418;0.4836;-0.3161;0.0964;0.0763;-0.2117;0.1394;-0.1785;57.0;-37.01;0.06;-12.66;28.38;59.13;84.48;5.0;38.408;39.468933;-0.34098;69.3;NaN;;17.717;;0 / 20;1340;2021-10-20 00:26:13:960
8.724;-5.2991;0.545;-5.0087;-8.418;0.4836;-0.3161;0.0964;0.0763;-0.2117;0.1394;-0.1785;57.0;-37.01;0.06;-12.66;28.38;59.13;84.48;5.0;38.408;39.468933;-0.34098;69.3;NaN;;17.717;;0 / 20;1345;2021-10-20 00:26:13:965
8.724;-5.2991;0.545;-5.1427;-8.3318;0.565;-0.3564;0.2152;0.0238;-0.2117;0.1394;-0.1785;57.0;-37.01;0.06;-12.66;28.38;59.13;84.48;5.0;38.408;39.468933;-0.34098;69.3;NaN;;17.717;;0 / 20;1350;2021-10-20 00:26:13:970
8.724;-5.2991;0.545;-5.1427;-8.3318;0.565;-0.3564;0.2152;0.0238;-0.2117;0.1394;-0.1785;57.0;-37.01;0.06;-12.66;28.38;59.13;84.48;5.0;38.408;39.468933;-0.34098;69.3;NaN;;17.717;;0 / 20;1355;2021-10-20 00:26:13:975
8.612;-5.33;0.665;-5.1427;-8.3318;0.565;-0.3564;0.2152;0.0238;-0.2117;0.1394;-0.1785;57.0;-36.96;0.0;-12.54;28.38;59.13;84.48;5.0;38.408;39.468933;-0.34098;69.3;NaN;;17.717;;0 / 20;1360;2021-10-20 00:26:13:980
8.612;-5.33;0.665;-5.1667;-8.3031;0.6991;-0.25;0.2607;-0.0974;-0.1741;0.114;-0.1202;57.0;-36.96;0.0;-12.54;28.38;59.13;84.48;5.0;38.408;39.468933;-0.34098;69.3;NaN;;17.717;;0 / 20;1365;2021-10-20 00:26:13:985
8.5571;-5.421;0.804;-5.1667;-8.3031;0.6991;-0.25;0.2607;-0.0974;-0.1741;0.114;-0.1202;57.0;-36.96;0.0;-12.54;28.38;59.13;84.48;5.0;38.408;39.468933;-0.34098;69.3;NaN;;17.717;;0 / 20;1370;2021-10-20 00:26:13:990
8.5571;-5.421;0.804;-5.1667;-8.3031;0.6991;-0.25;0.2607;-0.0974;-0.1741;0.114;-0.1202;57.0;-36.96;0.0;-12.54;28.38;59.13;84.48;5.0;38.408;39.468933;-0.34098;69.3;NaN;;17.717;;0 / 20;1374;2021-10-20 00:26:13:994
8.5571;-5.421;0.804;-5.296;-8.2121;0.814;-0.25;0.2607;-0.0974;-0.1741;0.114;-0.1202;57.0;-37.14;0.0;-12.66;31.1;57.87;82.29;5.0;38.408;39.468933;-0.34098;69.3;NaN;;17.717;;0 / 20;1380;2021-10-20 00:26:14:000
8.5571;-5.421;0.804;-5.296;-8.2121;0.814;-0.25;0.2607;-0.0974;-0.1741;0.114;-0.1202;57.0;-37.14;0.0;-12.66;31.1;57.87;82.29;5.0;38.408;39.468933;-0.34098;69.3;NaN;;17.717;;0 / 20;1384;2021-10-20 00:26:14:004
8.4251;-5.505;0.8951;-5.296;-8.2121;0.814;-0.25;0.2607;-0.0974;-0.1444;0.0954;-0.0791;57.0;-37.14;0.0;-12.66;31.1;57.87;82.29;5.0;38.408;39.468933;-0.34098;69.3;NaN;;17.717;;0 / 20;1390;2021-10-20 00:26:14:010
8.4251;-5.505;0.8951;-5.3439;-8.1738;0.8715;-0.1341;0.4221;-0.3004;-0.1444;0.0954;-0.0791;57.0;-37.2;-0.36;-12.84;31.1;57.87;82.29;5.0;38.408;39.468933;-0.34098;69.3;NaN;;17.717;;0 / 20;1395;2021-10-20 00:26:14:015
8.4251;-5.505;0.8951;-5.3439;-8.1738;0.8715;-0.1341;0.4221;-0.3004;-0.1444;0.0954;-0.0791;57.0;-37.2;-0.36;-12.84;31.1;57.87;82.29;5.0;38.408;39.468933;-0.34098;69.3;NaN;;17.717;;0 / 20;1400;2021-10-20 00:26:14:020
8.432;-5.45;0.9161;-5.3151;-8.1977;0.8523;-0.0226;0.4129;-0.3799;-0.1046;0.0767;-0.0331;57.0;-37.2;-0.36;-12.84;31.1;57.87;82.29;5.0;38.408;39.468933;-0.34098;69.3;NaN;;17.717;;0 / 20;1405;2021-10-20 00:26:14:025
8.432;-5.45;0.9161;-5.3151;-8.1977;0.8523;-0.0226;0.4129;-0.3799;-0.1046;0.0767;-0.0331;57.0;-37.2;-0.36;-12.84;31.1;57.87;82.29;5.0;38.408;39.468933;-0.34098;69.3;NaN;;17.717;;0 / 20;1409;2021-10-20 00:26:14:029
8.4371;-5.493;0.821;-5.3151;-8.1977;0.8523;-0.0226;0.4129;-0.3799;-0.1046;0.0767;-0.0331;57.0;-37.2;-0.36;-12.84;31.1;57.87;82.29;5.0;38.408;39.468933;-0.34098;69.3;NaN;;17.717;;0 / 20;1415;2021-10-20 00:26:14:035
8.4371;-5.493;0.821;-5.3247;-8.193;0.8188;-0.0226;0.4129;-0.3799;-0.1046;0.0767;-0.0331;57.0;-37.31;-0.24;-12.71;32.97;56.71;80.89;5.0;38.408;39.468933;-0.34098;69.3;NaN;;17.717;;0 / 20;1420;2021-10-20 00:26:14:040
8.4371;-5.493;0.821;-5.3247;-8.193;0.8188;-0.0226;0.4129;-0.3799;-0.1046;0.0767;-0.0331;57.0;-37.31;-0.24;-12.71;32.97;56.71;80.89;5.0;38.408;39.468933;-0.34098;69.3;NaN;;17.717;;0 / 20;1424;2021-10-20 00:26:14:044
8.3801;-5.495;0.849;-5.363;-8.169;0.7997;-0.0653;0.4239;-0.2947;-0.0602;0.0568;0.012;57.0;-37.31;-0.24;-12.71;32.97;56.71;80.89;5.0;38.408;39.468933;-0.34098;69.3;NaN;;17.717;;0 / 20;1430;2021-10-20 00:26:14:050
8.3801;-5.495;0.849;-5.363;-8.169;0.7997;-0.0653;0.4239;-0.2947;-0.0602;0.0568;0.012;57.0;-37.31;-0.24;-12.71;32.97;56.71;80.89;5.0;38.408;39.468933;-0.34098;69.3;NaN;;17.717;;0 / 20;1434;2021-10-20 00:26:14:054
8.3801;-5.495;0.849;-5.363;-8.169;0.7997;-0.0653;0.4239;-0.2947;-0.014;0.0374;0.0506;57.0;-37.31;-0.3;-12.9;32.97;56.71;80.89;5.0;38.408;39.468933;-0.34098;69.3;NaN;;17.717;;0 / 20;1440;2021-10-20 00:26:14:060
8.43;-5.44;0.873;-5.3199;-8.1977;0.838;0.0109;0.388;-0.2899;-0.014;0.0374;0.0506;57.0;-37.31;-0.3;-12.9;32.97;56.71;80.89;5.0;38.408;39.468933;-0.34098;69.3;NaN;;17.717;;0 / 20;1445;2021-10-20 00:26:14:065
8.43;-5.44;0.873;-5.3199;-8.1977;0.838;0.0109;0.388;-0.2899;-0.014;0.0374;0.0506;57.0;-37.31;-0.3;-12.9;32.97;56.71;80.89;5.0;38.408;39.468933;-0.34098;69.3;NaN;;17.717;;0 / 20;1450;2021-10-20 00:26:14:070
8.43;-5.44;0.873;-5.3199;-8.1977;0.838;0.0109;0.388;-0.2899;-0.014;0.0374;0.0506;57.0;-37.44;-0.19;-12.84;32.8;56.7;81.05;5.0;38.408;39.468933;-0.34098;69.3;NaN;;17.717;;0 / 20;1455;2021-10-20 00:26:14:075
8.468;-5.572;0.923;-5.4013;-8.1355;0.905;-0.0654;0.4843;-0.324;-0.014;0.0374;0.0506;57.0;-37.44;-0.19;-12.84;32.8;56.7;81.05;5.0;38.408;39.468933;-0.34098;69.3;NaN;;17.717;;0 / 20;1459;2021-10-20 00:26:14:079
8.468;-5.572;0.923;-5.4013;-8.1355;0.905;-0.0654;0.4843;-0.324;0.0311;0.0213;0.0778;57.0;-37.44;-0.19;-12.84;32.8;56.7;81.05;5.0;38.408;39.468933;-0.34098;69.3;NaN;;17.717;;0 / 20;1465;2021-10-20 00:26:14:085
8.468;-5.572;0.923;-5.4013;-8.1355;0.905;-0.0654;0.4843;-0.324;0.0311;0.0213;0.0778;57.0;-37.44;-0.19;-12.84;32.8;56.7;81.05;5.0;38.408;39.468933;-0.34098;69.3;NaN;;17.717;;0 / 20;1469;2021-10-20 00:26:14:089
8.334;-5.672;1.0811;-5.4827;-8.0637;1.0726;-0.0654;0.4843;-0.324;0.0311;0.0213;0.0778;57.0;-37.44;-0.19;-12.84;32.8;56.7;81.05;5.0;38.408;39.468933;-0.34098;69.3;NaN;;17.717;;0 / 20;1475;2021-10-20 00:26:14:095
8.334;-5.672;1.0811;-5.4827;-8.0637;1.0726;-0.0654;0.4843;-0.324;0.0311;0.0213;0.0778;57.0;-37.31;-0.06;-12.84;32.8;56.7;81.05;5.0;38.408;39.468933;-0.34098;69.3;NaN;;17.717;;0 / 20;1480;2021-10-20 00:26:14:100
8.334;-5.672;1.0811;-5.4827;-8.0637;1.0726;-0.0654;0.4843;-0.324;0.0831;0.0094;0.1042;57.0;-37.31;-0.06;-12.84;32.8;56.7;81.05;5.0;38.408;39.468933;-0.34098;69.3;NaN;;17.717;;0 / 20;1485;2021-10-20 00:26:14:105
8.3321;-5.644;1.026;-5.4684;-8.0876;0.9242;0.0601;0.536;-0.5319;0.0831;0.0094;0.1042;50.0;-37.31;-0.06;-12.84;32.8;56.7;81.05;5.0;39.602;39.468933;-0.34098;69.3;NaN;;17.717;;0 / 20;1490;2021-10-20 00:26:14:110
8.3321;-5.644;1.026;-5.4684;-8.0876;0.9242;0.0601;0.536;-0.5319;0.0831;0.0094;0.1042;50.0;-37.31;-0.06;-12.84;32.8;56.7;81.05;5.0;39.602;39.468933;-0.34098;69.3;NaN;;17.717;;0 / 20;1495;2021-10-20 00:26:14:115
8.3321;-5.644;1.026;-5.4684;-8.0876;0.9242;0.0601;0.536;-0.5319;0.0831;0.0094;0.1042;50.0;-37.74;-0.19;-12.9;33.34;55.56;80.41;5.0;39.602;39.468933;-0.34098;69.3;NaN;;17.717;;0 / 20;1500;2021-10-20 00:26:14:120
8.2931;-5.684;0.9161;-5.5593;-8.0302;0.8859;-0.0073;0.4893;-0.3538;0.1382;0.0034;0.1265;50.0;-37.74;-0.19;-12.9;33.34;55.56;80.41;5.0;39.602;39.468933;-0.34098;69.3;NaN;;17.717;;0 / 20;1504;2021-10-20 00:26:14:124
8.2931;-5.684;0.9161;-5.5593;-8.0302;0.8859;-0.0073;0.4893;-0.3538;0.1382;0.0034;0.1265;50.0;-37.74;-0.19;-12.9;33.34;55.56;80.41;5.0;39.602;39.468933;-0.34098;69.3;NaN;;17.717;;0 / 20;1510;2021-10-20 00:26:14:130
8.2931;-5.684;0.9161;-5.5593;-8.0302;0.8859;-0.0073;0.4893;-0.3538;0.1382;0.0034;0.1265;50.0;-37.74;-0.19;-12.9;33.34;55.56;80.41;5.0;39.602;39.468933;-0.34098;69.3;NaN;;17.717;;0 / 20;1515;2021-10-20 00:26:14:135
8.198;-5.7349;0.957;-5.6264;-7.9727;0.9577;0.1544;0.6028;-0.3477;0.1382;0.0034;0.1265;50.0;-37.86;-0.24;-12.9;33.34;55.56;80.41;5.0;39.602;39.468933;-0.34098;69.3;NaN;;17.717;;0 / 20;1520;2021-10-20 00:26:14:140
8.198;-5.7349;0.957;-5.6264;-7.9727;0.9577;0.1544;0.6028;-0.3477;0.1933;-7.0E-4;0.1497;50.0;-37.86;-0.24;-12.9;33.34;55.56;80.41;5.0;39.602;39.468933;-0.34098;69.3;NaN;;17.717;;0 / 20;1525;2021-10-20 00:26:14:145
8.198;-5.7349;0.957;-5.6264;-7.9727;0.9577;0.1544;0.6028;-0.3477;0.1933;-7.0E-4;0.1497;50.0;-37.86;-0.24;-12.9;33.34;55.56;80.41;5.0;39.602;39.468933;-0.34098;69.3;NaN;;17.717;;0 / 20;1529;2021-10-20 00:26:14:149
8.1641;-5.6681;0.969;-5.5402;-8.0397;0.9242;0.1544;0.6028;-0.3477;0.1933;-7.0E-4;0.1497;50.0;-37.86;-0.24;-12.9;33.34;55.56;80.41;5.0;39.602;39.468933;-0.34098;69.3;NaN;;17.717;;0 / 20;1535;2021-10-20 00:26:14:155
8.1641;-5.6681;0.969;-5.5402;-8.0397;0.9242;0.1544;0.6028;-0.3477;0.1933;-7.0E-4;0.1497;50.0;-37.91;-0.24;-12.9;33.36;55.06;80.53;5.0;39.602;39.468933;-0.34098;69.3;NaN;;17.717;;0 / 20;1540;2021-10-20 00:26:14:160
8.1641;-5.6681;0.969;-5.5402;-8.0397;0.9242;0.1544;0.6028;-0.3477;0.2324;-0.0051;0.1643;50.0;-37.91;-0.24;-12.9;33.36;55.06;80.53;5.0;39.602;39.468933;-0.34098;69.3;NaN;;17.717;;0 / 20;1545;2021-10-20 00:26:14:165
8.1641;-5.6681;0.969;-5.5402;-8.0397;0.9242;0.1544;0.6028;-0.3477;0.2324;-0.0051;0.1643;50.0;-37.91;-0.24;-12.9;33.36;55.06;80.53;5.0;39.602;39.468933;-0.34098;69.3;NaN;;17.717;;0 / 20;1549;2021-10-20 00:26:14:169
8.25;-5.577;0.9;-5.4253;-8.1259;0.8523;0.1512;0.4559;-0.311;0.2324;-0.0051;0.1643;50.0;-37.91;-0.24;-12.9;33.36;55.06;80.53;5.0;39.602;39.468933;-0.34098;69.3;NaN;;17.717;;0 / 20;1555;2021-10-20 00:26:14:175
8.25;-5.577;0.9;-5.4253;-8.1259;0.8523;0.1512;0.4559;-0.311;0.2324;-0.0051;0.1643;50.0;-38.1;-0.24;-12.84;33.36;55.06;80.53;5.0;39.602;39.468933;-0.34098;69.3;NaN;;17.717;;0 / 20;1560;2021-10-20 00:26:14:180
8.3681;-5.4761;0.746;-5.3726;-8.1738;0.68;-0.0158;0.3359;-0.1516;0.2324;-0.0051;0.1643;50.0;-38.1;-0.24;-12.84;33.36;55.06;80.53;5.0;39.602;39.468933;-0.34098;69.3;NaN;;17.717;;0 / 20;1565;2021-10-20 00:26:14:185
8.3681;-5.4761;0.746;-5.3726;-8.1738;0.68;-0.0158;0.3359;-0.1516;0.241;-0.0104;0.1671;50.0;-38.1;-0.24;-12.84;33.36;55.06;80.53;5.0;39.602;39.468933;-0.34098;69.3;NaN;;17.717;;0 / 20;1569;2021-10-20 00:26:14:189
8.3681;-5.4761;0.746;-5.3726;-8.1738;0.68;-0.0158;0.3359;-0.1516;0.241;-0.0104;0.1671;50.0;-38.16;-0.6;-12.71;30.91;56.47;82.79;5.0;39.602;39.468933;-0.34098;69.3;NaN;;17.717;;0 / 20;1575;2021-10-20 00:26:14:195
8.31;-5.512;0.639;-5.4157;-8.1546;0.6033;-0.0733;0.2712;0.0193;0.2298;-0.0172;0.1627;50.0;-38.16;-0.6;-12.71;30.91;56.47;82.79;5.0;39.602;39.468933;-0.34098;69.3;NaN;;17.717;;0 / 20;1580;2021-10-20 00:26:14:200
8.31;-5.512;0.639;-5.4157;-8.1546;0.6033;-0.0733;0.2712;0.0193;0.2298;-0.0172;0.1627;50.0;-38.16;-0.6;-12.71;30.91;56.47;82.79;5.0;39.602;39.468933;-0.34098;69.3;NaN;;17.717;;0 / 20;1585;2021-10-20 00:26:14:205
8.31;-5.512;0.639;-5.4157;-8.1546;0.6033;-0.0733;0.2712;0.0193;0.2298;-0.0172;0.1627;50.0;-38.16;-0.6;-12.71;30.91;56.47;82.79;5.0;39.602;39.468933;-0.34098;69.3;NaN;;17.717;;0 / 20;1590;2021-10-20 00:26:14:210
8.274;-5.4979;0.572;-5.4157;-8.1546;0.6033;-0.0733;0.2712;0.0193;0.2298;-0.0172;0.1627;50.0;-38.21;-0.66;-12.71;30.91;56.47;82.79;5.0;39.602;39.468933;-0.34098;69.3;NaN;;17.717;;0 / 20;1595;2021-10-20 00:26:14:215
8.274;-5.4979;0.572;-5.4157;-8.1546;0.6033;-0.0733;0.2712;0.0193;0.2298;-0.0172;0.1627;50.0;-38.21;-0.66;-12.71;30.91;56.47;82.79;5.0;39.602;39.468933;-0.34098;69.3;NaN;;17.717;;0 / 20;1599;2021-10-20 00:26:14:219
8.274;-5.4979;0.572;-5.4157;-8.1546;0.6033;-0.0733;0.2712;0.0193;0.2116;-0.0246;0.1557;50.0;-38.21;-0.66;-12.71;30.91;56.47;82.79;5.0;39.602;39.468933;-0.34098;69.3;NaN;;17.717;;0 / 20;1605;2021-10-20 00:26:14:225
8.2481;-5.538;0.564;-5.454;-8.1355;0.5363;-0.0211;0.262;0.0781;0.2116;-0.0246;0.1557;50.0;-38.21;-0.66;-12.71;30.91;56.47;82.79;5.0;39.602;39.468933;-0.34098;69.3;NaN;;17.717;;0 / 20;1609;2021-10-20 00:26:14:229
8.2481;-5.538;0.564;-5.454;-8.1355;0.5363;-0.0211;0.262;0.0781;0.2116;-0.0246;0.1557;50.0;-38.21;-0.66;-12.71;30.91;56.47;82.79;5.0;39.602;39.468933;-0.34098;69.3;NaN;;17.717;;0 / 20;1615;2021-10-20 00:26:14:235
8.2481;-5.538;0.564;-5.454;-8.1355;0.5363;-0.0211;0.262;0.0781;0.2116;-0.0246;0.1557;50.0;-38.4;-0.84;-12.71;29.24;56.03;84.38;5.0;39.602;39.468933;-0.34098;69.3;NaN;;17.717;;0 / 20;1620;2021-10-20 00:26:14:240
8.157;-5.5699;0.584;-5.5306;-8.078;0.5698;0.0319;0.2539;0.1341;0.1942;-0.0318;0.1479;50.0;-38.4;-0.84;-12.71;29.24;56.03;84.38;5.0;39.602;39.468933;-0.34098;69.3;NaN;;17.717;;0 / 20;1625;2021-10-20 00:26:14:245
8.157;-5.5699;0.584;-5.5306;-8.078;0.5698;0.0319;0.2539;0.1341;0.1942;-0.0318;0.1479;50.0;-38.4;-0.84;-12.71;29.24;56.03;84.38;5.0;39.602;39.468933;-0.34098;69.3;NaN;;17.717;;0 / 20;1630;2021-10-20 00:26:14:250
8.157;-5.5699;0.584;-5.5306;-8.078;0.5698;0.0319;0.2539;0.1341;0.194;-0.0318;0.1479;50.0;-38.4;-0.84;-12.71;29.24;56.03;84.38;5.0;39.602;39.468933;-0.34098;69.3;NaN;;17.717;;0 / 20;1635;2021-10-20 00:26:14:255
8.162;-5.6029;0.4931;-5.5402;-8.078;0.4884;0.0722;0.3152;0.2426;0.194;-0.0318;0.1479;50.0;-38.51;-1.09;-12.9;29.24;56.03;84.38;5.0;39.602;39.468933;-0.34098;69.3;NaN;;17.717;;0 / 20;1639;2021-10-20 00:26:14:259
8.162;-5.6029;0.4931;-5.5402;-8.078;0.4884;0.0722;0.3152;0.2426;0.1838;-0.038;0.1398;50.0;-38.51;-1.09;-12.9;29.24;56.03;84.38;5.0;39.602;39.468933;-0.34098;69.3;NaN;;17.717;;0 / 20;1645;2021-10-20 00:26:14:265
8.1281;-5.558;0.521;-5.521;-8.0924;0.5028;0.0722;0.3152;0.2426;0.1838;-0.038;0.1398;50.0;-38.51;-1.09;-12.9;29.24;56.03;84.38;5.0;39.602;39.468933;-0.34098;69.3;NaN;;17.717;;0 / 20;1650;2021-10-20 00:26:14:270
8.1281;-5.558;0.521;-5.521;-8.0924;0.5028;0.0722;0.3152;0.2426;0.1838;-0.038;0.1398;50.0;-38.16;-1.14;-12.71;28.91;55.59;84.8;5.0;39.602;39.468933;-0.34098;69.3;NaN;;17.717;;0 / 20;1655;2021-10-20 00:26:14:275
8.1281;-5.558;0.521;-5.521;-8.0924;0.5028;0.0722;0.3152;0.2426;0.1838;-0.038;0.1398;50.0;-38.16;-1.14;-12.71;28.91;55.59;84.8;5.0;39.602;39.468933;-0.34098;69.3;NaN;;17.717;;0 / 20;1660;2021-10-20 00:26:14:280
8.2121;-5.598;0.627;-5.5306;-8.078;0.6033;0.059;0.2416;0.1573;0.1628;-0.0432;0.1312;50.0;-38.16;-1.14;-12.71;28.91;55.59;84.8;5.0;39.602;39.468933;-0.34098;69.3;NaN;;17.717;;0 / 20;1664;2021-10-20 00:26:14:284
8.2121;-5.598;0.627;-5.5306;-8.078;0.6033;0.059;0.2416;0.1573;0.1628;-0.0432;0.1312;50.0;-38.16;-1.14;-12.71;28.91;55.59;84.8;5.0;39.602;39.468933;-0.34098;69.3;NaN;;17.717;;0 / 20;1670;2021-10-20 00:26:14:290
8.2121;-5.598;0.627;-5.5306;-8.078;0.6033;0.059;0.2416;0.1573;0.1628;-0.0432;0.1312;50.0;-38.1;-1.26;-12.71;28.91;55.59;84.8;5.0;39.602;39.468933;-0.34098;69.3;NaN;;17.717;;0 / 20;1675;2021-10-20 00:26:14:295
8.195;-5.6531;0.651;-5.5402;-8.0637;0.656;0.0064;0.3194;0.0933;0.1628;-0.0432;0.1312;50.0;-38.1;-1.26;-12.71;28.91;55.59;84.8;5.0;39.602;39.468933;-0.34098;69.3;NaN;;17.717;;0 / 20;1679;2021-10-20 00:26:14:299
8.195;-5.6531;0.651;-5.5402;-8.0637;0.656;0.0064;0.3194;0.0933;0.1151;-0.0496;0.1173;50.0;-38.1;-1.26;-12.71;28.91;55.59;84.8;5.0;39.602;39.468933;-0.34098;69.3;NaN;;17.717;;0 / 20;1686;2021-10-20 00:26:14:306
8.195;-5.6531;0.651;-5.5402;-8.0637;0.656;0.0064;0.3194;0.0933;0.1151;-0.0496;0.1173;50.0;-38.1;-1.26;-12.71;28.91;55.59;84.8;5.0;39.602;39.468933;-0.34098;69.3;NaN;;17.717;;0 / 20;1689;2021-10-20 00:26:14:309
8.2031;-5.601;0.698;-5.521;-8.0732;0.6991;0.0064;0.3194;0.0933;0.1151;-0.0496;0.1173;50.0;-38.1;-1.26;-12.71;28.91;55.59;84.8;5.0;39.602;39.468933;-0.34098;69.3;NaN;;17.717;;0 / 20;1695;2021-10-20 00:26:14:315
8.2031;-5.601;0.698;-5.521;-8.0732;0.6991;0.0064;0.3194;0.0933;0.1151;-0.0496;0.1173;50.0;-38.16;-1.56;-12.66;31.75;55.42;82.78;5.0;39.602;39.468933;-0.34098;69.3;NaN;;17.717;;0 / 20;1699;2021-10-20 00:26:14:319
8.2031;-5.601;0.698;-5.521;-8.0732;0.6991;0.0064;0.3194;0.0933;0.0586;-0.0582;0.1029;50.0;-38.16;-1.56;-12.66;31.75;55.42;82.78;5.0;39.602;39.468933;-0.34098;69.3;NaN;;17.717;;0 / 20;1705;2021-10-20 00:26:14:325
8.289;-5.5099;0.797;-5.4061;-8.1451;0.7757;0.01;0.2626;0.0219;0.0586;-0.0582;0.1029;50.0;-38.16;-1.56;-12.66;31.75;55.42;82.78;5.0;39.602;39.468933;-0.34098;69.3;NaN;;17.717;;0 / 20;1709;2021-10-20 00:26:14:329
8.289;-5.5099;0.797;-5.4061;-8.1451;0.7757;0.01;0.2626;0.0219;0.0586;-0.0582;0.1029;50.0;-38.16;-1.56;-12.66;31.75;55.42;82.78;5.0;39.602;39.468933;-0.34098;69.3;NaN;;17.717;;0 / 20;1715;2021-10-20 00:26:14:335
8.289;-5.5099;0.797;-5.4061;-8.1451;0.7757;0.01;0.2626;0.0219;0.0586;-0.0582;0.1029;50.0;-37.86;-1.5;-12.41;31.75;55.42;82.78;5.0;39.602;39.468933;-0.34098;69.3;NaN;;17.717;;0 / 20;1720;2021-10-20 00:26:14:340
8.399;-5.5099;0.7871;-5.3534;-8.1834;0.7566;-0.1622;0.18;-0.0678;0.0237;-0.0645;0.0908;50.0;-37.86;-1.5;-12.41;31.75;55.42;82.78;5.0;39.602;39.468933;-0.34098;69.3;NaN;;17.717;;0 / 20;1725;2021-10-20 00:26:14:345
8.399;-5.5099;0.7871;-5.3534;-8.1834;0.7566;-0.1622;0.18;-0.0678;0.0237;-0.0645;0.0908;50.0;-37.86;-1.5;-12.41;31.75;55.42;82.78;5.0;39.602;39.468933;-0.34098;69.3;NaN;;17.717;;0 / 20;1729;2021-10-20 00:26:14:349
8.399;-5.5099;0.7871;-5.3534;-8.1834;0.7566;-0.1622;0.18;-0.0678;0.0237;-0.0645;0.0908;50.0;-37.86;-1.5;-12.41;31.75;55.42;82.78;5.0;39.602;39.468933;-0.34098;69.3;NaN;;17.717;;0 / 20;1735;2021-10-20 00:26:14:355
8.4011;-5.373;0.813;-5.2768;-8.2313;0.7757;-0.1972;0.0309;-0.0626;0.0237;-0.0645;0.0908;50.0;-37.8;-1.26;-12.41;30.29;56.55;81.96;5.0;39.602;39.468933;-0.34098;69.3;NaN;;17.717;;0 / 20;1740;2021-10-20 00:26:14:360
8.4011;-5.373;0.813;-5.2768;-8.2313;0.7757;-0.1972;0.0309;-0.0626;0.0215;-0.0652;0.0809;50.0;-37.8;-1.26;-12.41;30.29;56.55;81.96;5.0;39.602;39.468933;-0.34098;69.3;NaN;;17.717;;0 / 20;1745;2021-10-20 00:26:14:365
8.4011;-5.373;0.813;-5.2768;-8.2313;0.7757;-0.1972;0.0309;-0.0626;0.0215;-0.0652;0.0809;50.0;-37.8;-1.26;-12.41;30.29;56.55;81.96;5.0;39.602;39.468933;-0.34098;69.3;NaN;;17.717;;0 / 20;1749;2021-10-20 00:26:14:369
8.471;-5.316;0.758;-5.2194;-8.2744;0.7183;-0.1972;0.0309;-0.0626;0.0215;-0.0652;0.0809;50.0;-37.91;-1.39;-12.54;30.29;56.55;81.96;5.0;39.602;39.468933;-0.34098;69.3;NaN;;17.717;;0 / 20;1755;2021-10-20 00:26:14:375
8.471;-5.316;0.758;-5.2194;-8.2744;0.7183;-0.1972;0.0309;-0.0626;0.027;-0.0638;0.0686;50.0;-37.91;-1.39;-12.54;30.29;56.55;81.96;5.0;39.602;39.468933;-0.34098;69.3;NaN;;17.717;;0 / 20;1760;2021-10-20 00:26:14:380
8.54;-5.342;0.576;-5.2098;-8.2887;0.5459;-0.299;-0.0344;0.0525;0.027;-0.0638;0.0686;50.0;-37.91;-1.39;-12.54;30.29;56.55;81.96;5.0;39.602;39.468933;-0.34098;69.3;NaN;;17.717;;0 / 20;1765;2021-10-20 00:26:14:385
8.54;-5.342;0.576;-5.2098;-8.2887;0.5459;-0.299;-0.0344;0.0525;0.027;-0.0638;0.0685;50.0;-37.91;-1.39;-12.54;30.29;56.55;81.96;5.0;39.602;39.468933;-0.34098;69.3;NaN;;17.717;;0 / 20;1769;2021-10-20 00:26:14:389
8.54;-5.342;0.576;-5.2098;-8.2887;0.5459;-0.299;-0.0344;0.0525;0.027;-0.0638;0.0685;50.0;-37.91;-1.39;-12.54;30.29;56.55;81.96;5.0;39.602;39.468933;-0.34098;69.3;NaN;;17.717;;0 / 20;1775;2021-10-20 00:26:14:395
8.423;-5.428;0.569;-5.2864;-8.2361;0.5986;-0.2905;0.0386;0.1545;0.0308;-0.0628;0.0558;50.0;-37.74;-1.44;-12.41;27.64;57.71;84.02;5.0;39.602;39.468933;-0.34098;69.3;NaN;;17.717;;0 / 20;1780;2021-10-20 00:26:14:400
8.423;-5.428;0.569;-5.2864;-8.2361;0.5986;-0.2905;0.0386;0.1545;0.0308;-0.0628;0.0558;50.0;-37.74;-1.44;-12.41;27.64;57.71;84.02;5.0;39.602;39.468933;-0.34098;69.3;NaN;;17.717;;0 / 20;1785;2021-10-20 00:26:14:405
8.423;-5.428;0.569;-5.2864;-8.2361;0.5986;-0.2905;0.0386;0.1545;0.0308;-0.0628;0.0558;50.0;-37.74;-1.44;-12.41;27.64;57.71;84.02;5.0;39.602;39.468933;-0.34098;69.3;NaN;;17.717;;0 / 20;1790;2021-10-20 00:26:14:410
8.3801;-5.4191;0.677;-5.3008;-8.2265;0.656;-0.2905;0.0386;0.1545;0.0308;-0.0628;0.0558;50.0;-37.61;-1.26;-12.24;27.64;57.71;84.02;5.0;39.602;39.468933;-0.34098;69.3;NaN;;17.717;;0 / 20;1795;2021-10-20 00:26:14:415
8.3801;-5.4191;0.677;-5.3008;-8.2265;0.656;-0.2905;0.0386;0.1545;0.0408;-0.0594;0.0389;50.0;-37.61;-1.26;-12.24;27.64;57.71;84.02;5.0;39.602;39.468933;-0.34098;69.3;NaN;;17.717;;0 / 20;1800;2021-10-20 00:26:14:420
8.3801;-5.4191;0.677;-5.3008;-8.2265;0.656;-0.2905;0.0386;0.1545;0.0408;-0.0594;0.0389;50.0;-37.61;-1.26;-12.24;27.64;57.71;84.02;5.0;38.878;39.468933;-0.34098;69.3;NaN;;17.717;;0 / 20;1805;2021-10-20 00:26:14:425
8.418;-5.414;0.708;-5.2672;-8.2456;0.6656;-0.2257;0.0192;0.0266;0.0408;-0.0594;0.0389;50.0;-37.61;-1.26;-12.24;27.64;57.71;84.02;5.0;38.878;39.468933;-0.34098;69.3;NaN;;17.717;;0 / 20;1809;2021-10-20 00:26:14:429
8.418;-5.414;0.708;-5.2672;-8.2456;0.6656;-0.2257;0.0192;0.0266;0.0408;-0.0594;0.0389;50.0;-37.61;-1.26;-12.24;27.64;57.71;84.02;5.0;38.878;39.468933;-0.34098;69.3;NaN;;17.717;;0 / 20;1815;2021-10-20 00:26:14:435
8.418;-5.414;0.708;-5.2672;-8.2456;0.6656;-0.2257;0.0192;0.0266;0.0408;-0.0594;0.0389;50.0;-37.61;-1.26;-12.36;29.15;57.22;82.8;5.0;38.878;39.468933;-0.34098;69.3;NaN;;17.717;;0 / 20;1819;2021-10-20 00:26:14:439
8.478;-5.4311;0.744;-5.2672;-8.2408;0.7183;-0.3087;0.0304;-0.0046;0.0446;-0.0538;0.0187;53.0;-37.61;-1.26;-12.36;29.15;57.22;82.8;5.0;38.878;39.468933;-0.34098;69.3;NaN;;17.717;;0 / 20;1825;2021-10-20 00:26:14:445
8.478;-5.4311;0.744;-5.2672;-8.2408;0.7183;-0.3087;0.0304;-0.0046;0.0446;-0.0538;0.0187;53.0;-37.61;-1.26;-12.36;29.15;57.22;82.8;5.0;38.878;39.468933;-0.34098;69.3;NaN;;17.717;;0 / 20;1830;2021-10-20 00:26:14:450
8.478;-5.4311;0.744;-5.2672;-8.2408;0.7183;-0.3087;0.0304;-0.0046;0.0446;-0.0538;0.0187;53.0;-37.61;-1.26;-12.36;29.15;57.22;82.8;5.0;38.878;39.468933;-0.34098;69.3;NaN;;17.717;;0 / 20;1835;2021-10-20 00:26:14:455
8.5301;-5.3659;0.777;-5.1906;-8.2887;0.7566;-0.3482;0.0048;-0.0894;0.0446;-0.0538;0.0187;53.0;-37.61;-1.09;-12.36;29.15;57.22;82.8;5.0;38.878;39.468933;-0.34098;69.3;NaN;;17.717;;0 / 20;1839;2021-10-20 00:26:14:459
8.5301;-5.3659;0.777;-5.1906;-8.2887;0.7566;-0.3482;0.0048;-0.0894;0.0446;-0.0538;0.0187;53.0;-37.61;-1.09;-12.36;29.15;57.22;82.8;5.0;38.878;39.468933;-0.34098;69.3;NaN;;17.717;;0 / 20;1845;2021-10-20 00:26:14:465
8.5301;-5.3659;0.777;-5.1906;-8.2887;0.7566;-0.3482;0.0048;-0.0894;0.0404;-0.0454;-0.0066;53.0;-37.61;-1.09;-12.36;29.15;57.22;82.8;5.0;38.878;39.468933;-0.34098;69.3;NaN;;17.717;;0 / 20;1850;2021-10-20 00:26:14:470
8.5931;-5.3561;0.876;-5.138;-8.3127;0.814;-0.3482;0.0048;-0.0894;0.0404;-0.0454;-0.0066;53.0;-37.61;-1.09;-12.36;29.15;57.22;82.8;5.0;38.878;39.468933;-0.34098;69.3;NaN;;17.717;;0 / 20;1855;2021-10-20 00:26:14:475
8.5931;-5.3561;0.876;-5.138;-8.3127;0.814;-0.3482;0.0048;-0.0894;0.0274;-0.0344;-0.0363;53.0;-37.56;-0.9;-12.3;30.94;57.96;81.0;5.0;38.878;39.468933;-0.34098;69.3;NaN;;17.717;;0 / 20;1860;2021-10-20 00:26:14:480
8.5931;-5.3561;0.876;-5.138;-8.3127;0.814;-0.3482;0.0048;-0.0894;0.0274;-0.0344;-0.0363;53.0;-37.56;-0.9;-12.3;30.94;57.96;81.0;5.0;38.878;39.468933;-0.34098;69.3;NaN;;17.717;;0 / 20;1865;2021-10-20 00:26:14:485
8.6051;-5.3111;0.8591;-5.138;-8.3079;0.8523;-0.4528;-0.057;-0.1601;0.0274;-0.0344;-0.0363;53.0;-37.56;-0.9;-12.3;30.94;57.96;81.0;5.0;38.878;39.468933;-0.34098;69.3;NaN;;17.717;;0 / 20;1869;2021-10-20 00:26:14:489
8.6051;-5.3111;0.8591;-5.138;-8.3079;0.8523;-0.4528;-0.057;-0.1601;0.0274;-0.0344;-0.0363;53.0;-37.56;-0.9;-12.3;30.94;57.96;81.0;5.0;38.878;39.468933;-0.34098;69.3;NaN;;17.717;;0 / 20;1875;2021-10-20 00:26:14:495
8.6051;-5.3111;0.8591;-5.138;-8.3079;0.8523;-0.4528;-0.057;-0.1601;0.0274;-0.0344;-0.0363;53.0;-37.61;-1.09;-12.3;30.94;57.96;81.0;5.0;38.878;39.468933;-0.34098;69.3;NaN;;17.717;;0 / 20;1880;2021-10-20 00:26:14:500
8.5691;-5.304;0.95;-5.1332;-8.3031;0.9625;-0.4188;-0.0197;-0.2439;0.0173;-0.0241;-0.0602;53.0;-37.61;-1.09;-12.3;30.94;57.96;81.0;5.0;38.878;39.468933;-0.34098;69.3;NaN;;17.717;;0 / 20;1885;2021-10-20 00:26:14:505
8.5691;-5.304;0.95;-5.1332;-8.3031;0.9625;-0.4188;-0.0197;-0.2439;0.0173;-0.0241;-0.0602;53.0;-37.61;-1.09;-12.3;30.94;57.96;81.0;5.0;38.878;39.468933;-0.34098;69.3;NaN;;17.717;;0 / 20;1890;2021-10-20 00:26:14:510
8.5691;-5.304;0.95;-5.1332;-8.3031;0.9625;-0.4188;-0.0197;-0.2439;0.0173;-0.0241;-0.0602;53.0;-37.61;-1.09;-12.3;30.94;57.96;81.0;5.0;38.878;39.468933;-0.34098;69.3;NaN;;17.717;;0 / 20;1894;2021-10-20 00:26:14:514
8.5181;-5.3659;1.055;-5.1667;-8.2744;1.0104;-0.3701;0.0058;-0.3395;0.0219;-0.0157;-0.0711;53.0;-37.61;-1.26;-12.41;32.76;57.83;79.38;5.0;38.878;39.468933;-0.34098;69.3;NaN;;17.717;;0 / 20;1900;2021-10-20 00:26:14:520
8.5181;-5.3659;1.055;-5.1667;-8.2744;1.0104;-0.3701;0.0058;-0.3395;0.0219;-0.0157;-0.0711;53.0;-37.61;-1.26;-12.41;32.76;57.83;79.38;5.0;38.878;39.468933;-0.34098;69.3;NaN;;17.717;;0 / 20;1904;2021-10-20 00:26:14:524
8.5181;-5.3659;1.055;-5.1667;-8.2744;1.0104;-0.3701;0.0058;-0.3395;0.0219;-0.0157;-0.0711;53.0;-37.61;-1.26;-12.41;32.76;57.83;79.38;5.0;38.878;39.468933;-0.34098;69.3;NaN;;17.717;;0 / 20;1910;2021-10-20 00:26:14:530
8.495;-5.388;1.1651;-5.205;-8.2361;1.1349;-0.3701;0.0058;-0.3395;0.0219;-0.0157;-0.0711;53.0;-37.61;-1.26;-12.41;32.76;57.83;79.38;5.0;38.878;39.468933;-0.34098;69.3;NaN;;17.717;;0 / 20;1915;2021-10-20 00:26:14:535
8.495;-5.388;1.1651;-5.205;-8.2361;1.1349;-0.3701;0.0058;-0.3395;0.0494;-0.0092;-0.0694;53.0;-37.56;-1.39;-12.24;32.76;57.83;79.38;5.0;38.878;39.468933;-0.34098;69.3;NaN;;17.717;;0 / 20;1920;2021-10-20 00:26:14:540
8.495;-5.388;1.1651;-5.205;-8.2361;1.1349;-0.3701;0.0058;-0.3395;0.0494;-0.0092;-0.0694;53.0;-37.56;-1.39;-12.24;32.76;57.83;79.38;5.0;38.878;39.468933;-0.34098;69.3;NaN;;17.717;;0 / 20;1924;2021-10-20 00:26:14:544
8.511;-5.337;1.2041;-5.1571;-8.26;1.1732;-0.3217;0.0314;-0.4856;0.0494;-0.0092;-0.0694;53.0;-37.56;-1.39;-12.24;32.76;57.83;79.38;5.0;38.878;39.468933;-0.34098;69.3;NaN;;17.717;;0 / 20;1930;2021-10-20 00:26:14:550
8.511;-5.337;1.2041;-5.1571;-8.26;1.1732;-0.3217;0.0314;-0.4856;0.0494;-0.0092;-0.0694;53.0;-37.56;-1.39;-12.24;32.76;57.83;79.38;5.0;38.878;39.468933;-0.34098;69.3;NaN;;17.717;;0 / 20;1935;2021-10-20 00:26:14:555
8.511;-5.337;1.2041;-5.1571;-8.26;1.1732;-0.3217;0.0314;-0.4856;0.0494;-0.0092;-0.0694;53.0;-37.8;-1.44;-12.11;35.31;57.37;77.18;5.0;38.878;39.468933;-0.34098;69.3;NaN;;17.717;;0 / 20;1940;2021-10-20 00:26:14:560
8.5331;-5.3329;1.0721;-5.1667;-8.2744;1.0199;-0.3284;-0.0111;-0.4212;0.0494;-0.0092;-0.0694;53.0;-37.8;-1.44;-12.11;35.31;57.37;77.18;5.0;38.878;39.468933;-0.34098;69.3;NaN;;17.717;;0 / 20;1945;2021-10-20 00:26:14:565
8.5331;-5.3329;1.0721;-5.1667;-8.2744;1.0199;-0.3284;-0.0111;-0.4212;0.0979;-0.003;-0.065;53.0;-37.8;-1.44;-12.11;35.31;57.37;77.18;5.0;38.878;39.468933;-0.34098;69.3;NaN;;17.717;;0 / 20;1949;2021-10-20 00:26:14:569
8.5331;-5.3329;1.0721;-5.1667;-8.2744;1.0199;-0.3284;-0.0111;-0.4212;0.0979;-0.003;-0.065;53.0;-37.8;-1.44;-12.11;35.31;57.37;77.18;5.0;38.878;39.468933;-0.34098;69.3;NaN;;17.717;;0 / 20;1955;2021-10-20 00:26:14:575
8.4491;-5.376;0.921;-5.2146;-8.2648;0.8475;-0.254;0.0551;-0.2155;0.1381;0.0017;-0.0594;53.0;-37.74;-1.56;-12.24;35.31;57.37;77.18;5.0;38.878;39.468933;-0.34098;69.3;NaN;;17.717;;0 / 20;1960;2021-10-20 00:26:14:580
8.4491;-5.376;0.921;-5.2146;-8.2648;0.8475;-0.254;0.0551;-0.2155;0.1381;0.0017;-0.0594;53.0;-37.74;-1.56;-12.24;35.31;57.37;77.18;5.0;38.878;39.468933;-0.34098;69.3;NaN;;17.717;;0 / 20;1965;2021-10-20 00:26:14:585
8.4491;-5.376;0.921;-5.2146;-8.2648;0.8475;-0.254;0.0551;-0.2155;0.1381;0.0017;-0.0594;53.0;-37.74;-1.56;-12.24;35.31;57.37;77.18;5.0;38.878;39.468933;-0.34098;69.3;NaN;;17.717;;0 / 20;1969;2021-10-20 00:26:14:589
8.49;-5.409;0.842;-5.2289;-8.2552;0.8045;-0.254;0.0551;-0.2155;0.1381;0.0017;-0.0594;53.0;-37.74;-1.56;-12.24;35.31;57.37;77.18;5.0;38.878;39.468933;-0.34098;69.3;NaN;;17.717;;0 / 20;1975;2021-10-20 00:26:14:595
8.49;-5.409;0.842;-5.2289;-8.2552;0.8045;-0.254;0.0551;-0.2155;0.1646;0.0026;-0.0538;53.0;-37.86;-1.39;-12.06;30.84;57.35;81.25;5.0;38.878;39.468933;-0.34098;69.3;NaN;;17.717;;0 / 20;1980;2021-10-20 00:26:14:600
8.5061;-5.4191;0.828;-5.2289;-8.2552;0.8045;-0.254;0.0551;-0.2155;0.1646;0.0026;-0.0538;53.0;-37.86;-1.39;-12.06;30.84;57.35;81.25;5.0;38.878;39.468933;-0.34098;69.3;NaN;;17.717;;0 / 20;1985;2021-10-20 00:26:14:605
8.5061;-5.4191;0.828;-5.2337;-8.2504;0.8332;-0.3028;0.0799;-0.1023;0.1646;0.0026;-0.0538;53.0;-37.86;-1.39;-12.06;30.84;57.35;81.25;5.0;38.878;39.468933;-0.34098;69.3;NaN;;17.717;;0 / 20;1990;2021-10-20 00:26:14:610
8.5061;-5.4191;0.828;-5.2337;-8.2504;0.8332;-0.3028;0.0799;-0.1023;0.1646;0.0026;-0.0538;53.0;-37.86;-1.39;-12.06;30.84;57.35;81.25;5.0;38.878;39.468933;-0.34098;69.3;NaN;;17.717;;0 / 20;1994;2021-10-20 00:26:14:614
8.528;-5.352;0.806;-5.2337;-8.2504;0.8332;-0.3028;0.0799;-0.1023;0.1646;0.0026;-0.0538;53.0;-38.04;-1.39;-12.06;30.84;57.35;81.25;5.0;38.878;39.468933;-0.34098;69.3;NaN;;17.717;;0 / 20;2000;2021-10-20 00:26:14:620
8.528;-5.352;0.806;-5.1619;-8.3031;0.7518;-0.352;0.0361;-0.0296;0.1646;0.0026;-0.0538;53.0;-38.04;-1.39;-12.06;30.84;57.35;81.25;5.0;38.878;39.468933;-0.34098;69.3;NaN;;17.717;;0 / 20;2005;2021-10-20 00:26:14:625
8.6021;-5.316;0.816;-5.1619;-8.3031;0.7518;-0.352;0.0361;-0.0296;0.1646;0.0026;-0.0538;53.0;-38.04;-1.39;-12.06;30.84;57.35;81.25;5.0;38.878;39.468933;-0.34098;69.3;NaN;;17.717;;0 / 20;2010;2021-10-20 00:26:14:630
8.6021;-5.316;0.816;-5.1619;-8.3031;0.7518;-0.352;0.0361;-0.0296;0.1646;0.0026;-0.0538;53.0;-38.04;-1.39;-12.06;30.84;57.35;81.25;5.0;38.878;39.468933;-0.34098;69.3;NaN;;17.717;;0 / 20;2015;2021-10-20 00:26:14:635
8.6021;-5.316;0.816;-5.1332;-8.3222;0.7518;-0.3878;0.019;-0.013;0.1646;0.0026;-0.0538;53.0;-38.16;-1.44;-12.0;30.17;57.86;81.71;5.0;38.878;39.468933;-0.34098;69.3;NaN;;17.717;;0 / 20;2019;2021-10-20 00:26:14:639
8.6021;-5.316;0.816;-5.1332;-8.3222;0.7518;-0.3878;0.019;-0.013;0.1646;0.0026;-0.0538;53.0;-38.16;-1.44;-12.0;30.17;57.86;81.71;5.0;38.878;39.468933;-0.34098;69.3;NaN;;17.717;;0 / 20;2025;2021-10-20 00:26:14:645
8.6171;-5.3059;0.797;-5.1332;-8.3222;0.7518;-0.3878;0.019;-0.013;0.1646;0.0026;-0.0538;53.0;-38.16;-1.44;-12.0;30.17;57.86;81.71;5.0;38.878;39.468933;-0.34098;69.3;NaN;;17.717;;0 / 20;2030;2021-10-20 00:26:14:650
8.6171;-5.3059;0.797;-5.1332;-8.3222;0.7614;-0.3878;0.019;-0.013;0.1646;0.0026;-0.0538;53.0;-38.16;-1.44;-12.0;30.17;57.86;81.71;5.0;38.878;39.468933;-0.34098;69.3;NaN;;17.717;;0 / 20;2035;2021-10-20 00:26:14:655
8.6171;-5.3059;0.797;-5.1332;-8.3222;0.7614;-0.3878;0.019;-0.013;0.1646;0.0026;-0.0538;53.0;-38.16;-1.39;-12.0;30.17;57.86;81.71;5.0;38.878;39.468933;-0.34098;69.3;NaN;;17.717;;0 / 20;2039;2021-10-20 00:26:14:659
8.5901;-5.3831;0.837;-5.1332;-8.3222;0.7614;-0.3878;0.019;-0.013;0.1646;0.0026;-0.0538;53.0;-38.16;-1.39;-12.0;30.17;57.86;81.71;5.0;38.878;39.468933;-0.34098;69.3;NaN;;17.717;;0 / 20;2045;2021-10-20 00:26:14:665
8.5901;-5.3831;0.837;-5.1811;-8.2935;0.7661;-0.3558;0.0693;-0.0259;0.1477;-0.0078;-0.0437;53.0;-38.16;-1.39;-12.0;30.17;57.86;81.71;5.0;38.878;39.468933;-0.34098;69.3;NaN;;17.717;;0 / 20;2050;2021-10-20 00:26:14:670
8.5901;-5.3831;0.837;-5.1811;-8.2935;0.7661;-0.3558;0.0693;-0.0259;0.1477;-0.0078;-0.0437;53.0;-38.16;-1.39;-12.0;30.17;57.86;81.71;5.0;38.878;39.468933;-0.34098;69.3;NaN;;17.717;;0 / 20;2054;2021-10-20 00:26:14:674
8.564;-5.3921;0.7301;-5.1811;-8.2935;0.7661;-0.3558;0.0693;-0.0259;0.1477;-0.0078;-0.0437;53.0;-38.16;-1.26;-12.11;30.35;57.73;81.59;5.0;38.878;39.468933;-0.34098;69.3;NaN;;17.717;;0 / 20;2060;2021-10-20 00:26:14:680
8.564;-5.3921;0.7301;-5.2385;-8.2552;0.7518;-0.3105;0.1052;0.0537;0.1477;-0.0078;-0.0437;53.0;-38.16;-1.26;-12.11;30.35;57.73;81.59;5.0;38.878;39.468933;-0.34098;69.3;NaN;;17.717;;0 / 20;2065;2021-10-20 00:26:14:685
8.564;-5.3921;0.7301;-5.2385;-8.2552;0.7518;-0.3105;0.1052;0.0537;0.1477;-0.0078;-0.0437;53.0;-38.16;-1.26;-12.11;30.35;57.73;81.59;5.0;38.878;39.468933;-0.34098;69.3;NaN;;17.717;;0 / 20;2069;2021-10-20 00:26:14:689
8.5211;-5.4041;0.816;-5.2385;-8.2552;0.7518;-0.3105;0.1052;0.0537;0.1477;-0.0078;-0.0437;53.0;-38.16;-1.26;-12.11;30.35;57.73;81.59;5.0;38.878;39.468933;-0.34098;69.3;NaN;;17.717;;0 / 20;2075;2021-10-20 00:26:14:695
8.5211;-5.4041;0.816;-5.2577;-8.2408;0.7997;-0.3105;0.1052;0.0537;0.1477;-0.0078;-0.0437;53.0;-38.04;-1.26;-12.11;30.35;57.73;81.59;5.0;38.878;39.468933;-0.34098;69.3;NaN;;17.717;;0 / 20;2079;2021-10-20 00:26:14:699
8.5211;-5.4521;0.773;-5.2577;-8.2408;0.7997;-0.3105;0.1052;0.0537;0.1203;-0.0192;-0.0356;53.0;-38.04;-1.26;-12.11;30.35;57.73;81.59;5.0;38.878;39.468933;-0.34098;69.3;NaN;;17.717;;0 / 20;2085;2021-10-20 00:26:14:705
8.5211;-5.4521;0.773;-5.2816;-8.2313;0.723;-0.3065;0.1811;-0.0321;0.1203;-0.0192;-0.0356;53.0;-38.04;-1.26;-12.11;30.35;57.73;81.59;5.0;38.878;39.468933;-0.34098;69.3;NaN;;17.717;;0 / 20;2090;2021-10-20 00:26:14:710
8.492;-5.4641;0.765;-5.2816;-8.2313;0.723;-0.3065;0.1811;-0.0321;0.1203;-0.0192;-0.0356;53.0;-38.04;-1.26;-12.11;30.35;57.73;81.59;5.0;38.878;39.468933;-0.34098;69.3;NaN;;17.717;;0 / 20;2095;2021-10-20 00:26:14:715
8.492;-5.4641;0.765;-5.2816;-8.2313;0.723;-0.3065;0.1811;-0.0321;0.1203;-0.0192;-0.0356;53.0;-38.1;-1.26;-12.36;29.86;57.07;82.2;5.0;38.878;39.468933;-0.34098;69.3;NaN;;17.717;;0 / 20;2100;2021-10-20 00:26:14:720
8.492;-5.4641;0.765;-5.3008;-8.2121;0.8092;-0.2349;0.1878;0.003;0.1089;-0.0219;-0.0301;53.0;-38.1;-1.26;-12.36;29.86;57.07;82.2;5.0;38.878;39.468933;-0.34098;69.3;NaN;;17.717;;0 / 20;2105;2021-10-20 00:26:14:725
8.435;-5.467;0.854;-5.3008;-8.2121;0.8092;-0.2349;0.1878;0.003;0.1089;-0.0219;-0.0301;53.0;-38.1;-1.26;-12.36;29.86;57.07;82.2;5.0;38.878;39.468933;-0.34098;69.3;NaN;;17.717;;0 / 20;2110;2021-10-20 00:26:14:730
8.435;-5.467;0.854;-5.3008;-8.2121;0.8092;-0.2349;0.1878;0.003;0.1089;-0.0219;-0.0301;53.0;-38.1;-1.26;-12.36;29.86;57.07;82.2;5.0;38.878;39.468933;-0.34098;69.3;NaN;;17.717;;0 / 20;2114;2021-10-20 00:26:14:734
8.435;-5.467;0.854;-5.3008;-8.2121;0.8188;-0.2181;0.2206;-0.0335;0.1089;-0.0219;-0.0301;53.0;-38.16;-1.14;-12.24;29.86;57.07;82.2;5.0;38.878;39.468933;-0.34098;69.3;NaN;;17.717;;0 / 20;2120;2021-10-20 00:26:14:740
8.483;-5.469;0.8441;-5.3008;-8.2121;0.8188;-0.2181;0.2206;-0.0335;0.1089;-0.0219;-0.0301;53.0;-38.16;-1.14;-12.24;29.86;57.07;82.2;5.0;38.878;39.468933;-0.34098;69.3;NaN;;17.717;;0 / 20;2125;2021-10-20 00:26:14:745
8.483;-5.469;0.8441;-5.3008;-8.2121;0.8188;-0.2181;0.2206;-0.0335;0.1089;-0.0219;-0.0301;53.0;-38.16;-1.14;-12.24;29.86;57.07;82.2;5.0;38.878;39.468933;-0.34098;69.3;NaN;;17.717;;0 / 20;2130;2021-10-20 00:26:14:750
8.483;-5.469;0.8441;-5.3247;-8.193;0.8045;-0.2181;0.2206;-0.0335;0.081;-0.0253;-0.0261;53.0;-38.16;-1.14;-12.24;29.86;57.07;82.2;5.0;36.581;39.468933;-0.34098;69.3;NaN;;17.717;;0 / 20;2134;2021-10-20 00:26:14:754
8.408;-5.474;0.7991;-5.3247;-8.193;0.8045;-0.2181;0.2206;-0.0335;0.081;-0.0253;-0.0261;53.0;-38.1;-1.26;-12.06;30.86;56.68;81.41;5.0;36.581;39.468933;-0.34098;69.3;NaN;;17.717;;0 / 20;2140;2021-10-20 00:26:14:760
8.408;-5.474;0.7991;-5.3822;-8.1642;0.7805;-0.188;0.2251;0.0077;0.0474;-0.0278;-0.0231;53.0;-38.1;-1.26;-12.06;30.86;56.68;81.41;5.0;36.581;39.468933;-0.34098;69.3;NaN;;17.717;;0 / 20;2144;2021-10-20 00:26:14:764
8.408;-5.474;0.7991;-5.3822;-8.1642;0.7805;-0.188;0.2251;0.0077;0.0474;-0.0278;-0.0231;53.0;-38.1;-1.26;-12.06;30.86;56.68;81.41;5.0;36.581;39.468933;-0.34098;69.3;NaN;;17.717;;0 / 20;2150;2021-10-20 00:26:14:770
8.3561;-5.5481;0.77;-5.3822;-8.1642;0.7805;-0.188;0.2251;0.0077;0.0474;-0.0278;-0.0231;53.0;-38.04;-1.44;-11.81;30.86;56.68;81.41;5.0;36.581;39.468933;-0.34098;69.3;NaN;;17.717;;0 / 20;2155;2021-10-20 00:26:14:775
8.3561;-5.5481;0.77;-5.3486;-8.1834;0.7709;-0.1172;0.3108;-0.0078;0.0474;-0.0278;-0.0231;50.0;-38.04;-1.44;-11.81;30.86;56.68;81.41;5.0;36.581;39.468933;-0.34098;69.3;NaN;;17.717;;0 / 20;2160;2021-10-20 00:26:14:780
8.3561;-5.5481;0.77;-5.3486;-8.1834;0.7709;-0.1172;0.3108;-0.0078;0.0267;-0.0282;-0.0212;50.0;-38.04;-1.44;-11.81;30.86;56.68;81.41;5.0;36.581;39.468933;-0.34098;69.3;NaN;;17.717;;0 / 20;2165;2021-10-20 00:26:14:785
8.4281;-5.517;0.792;-5.3486;-8.1834;0.7709;-0.1172;0.3108;-0.0078;0.0267;-0.0282;-0.0212;50.0;-38.04;-1.44;-11.81;30.86;56.68;81.41;5.0;36.581;39.468933;-0.34098;69.3;NaN;;17.717;;0 / 20;2169;2021-10-20 00:26:14:789
8.4281;-5.517;0.792;-5.3439;-8.1882;0.7949;-0.1172;0.3108;-0.0078;0.0267;-0.0282;-0.0212;50.0;-38.04;-1.44;-11.81;30.86;56.68;81.41;5.0;36.581;39.468933;-0.34098;69.3;NaN;;17.717;;0 / 20;2175;2021-10-20 00:26:14:795
8.4281;-5.517;0.792;-5.3439;-8.1882;0.7949;-0.1172;0.3108;-0.0078;0.0267;-0.0282;-0.0212;50.0;-37.86;-1.2;-11.94;30.75;56.58;81.54;5.0;36.581;39.468933;-0.34098;69.3;NaN;;17.717;;0 / 20;2180;2021-10-20 00:26:14:800
8.439;-5.486;0.813;-5.3439;-8.1882;0.7949;-0.1172;0.3108;-0.0078;0.0212;-0.0276;-0.0131;50.0;-37.86;-1.2;-11.94;30.75;56.58;81.54;5.0;36.581;39.468933;-0.34098;69.3;NaN;;17.717;;0 / 20;2185;2021-10-20 00:26:14:805
8.439;-5.486;0.813;-5.2672;-8.2313;0.8188;-0.1835;0.2588;-0.0101;0.0212;-0.0276;-0.0131;50.0;-37.86;-1.2;-11.94;30.75;56.58;81.54;5.0;36.581;39.468933;-0.34098;69.3;NaN;;17.717;;0 / 20;2190;2021-10-20 00:26:14:810
8.439;-5.486;0.813;-5.2672;-8.2313;0.8188;-0.1835;0.2588;-0.0101;0.0212;-0.0276;-0.0131;50.0;-37.86;-1.2;-11.94;30.75;56.58;81.54;5.0;36.581;39.468933;-0.34098;69.3;NaN;;17.717;;0 / 20;2195;2021-10-20 00:26:14:815
8.48;-5.4431;0.804;-5.2672;-8.2313;0.8188;-0.1835;0.2588;-0.0101;0.0212;-0.0276;-0.0131;50.0;-37.86;-1.2;-12.0;30.75;56.58;81.54;5.0;36.581;39.468933;-0.34098;69.3;NaN;;17.717;;0 / 20;2200;2021-10-20 00:26:14:820
8.48;-5.4431;0.804;-5.2385;-8.2552;0.7949;-0.224;0.1909;0.0012;0.0216;-0.0279;8.0E-4;50.0;-37.86;-1.2;-12.0;30.75;56.58;81.54;5.0;36.581;39.468933;-0.34098;69.3;NaN;;17.717;;0 / 20;2205;2021-10-20 00:26:14:825
8.48;-5.4431;0.804;-5.2385;-8.2552;0.7949;-0.224;0.1909;0.0012;0.0216;-0.0279;8.0E-4;50.0;-37.86;-1.2;-12.0;30.75;56.58;81.54;5.0;36.581;39.468933;-0.34098;69.3;NaN;;17.717;;0 / 20;2210;2021-10-20 00:26:14:830
8.48;-5.4431;0.804;-5.2385;-8.2552;0.7949;-0.224;0.1909;0.0012;0.0216;-0.0279;8.0E-4;50.0;-37.86;-1.2;-12.0;30.75;56.58;81.54;5.0;36.581;39.468933;-0.34098;69.3;NaN;;17.717;;0 / 20;2215;2021-10-20 00:26:14:835
8.495;-5.407;0.7511;-5.2433;-8.2552;0.7278;-0.2251;0.1752;0.0264;0.0216;-0.0279;8.0E-4;50.0;-37.86;-1.2;-11.64;30.72;57.31;81.37;5.0;36.581;39.468933;-0.34098;69.3;NaN;;17.717;;0 / 20;2220;2021-10-20 00:26:14:840
8.495;-5.407;0.7511;-5.2433;-8.2552;0.7278;-0.2251;0.1752;0.0264;0.0216;-0.0279;8.0E-4;50.0;-37.86;-1.2;-11.64;30.72;57.31;81.37;5.0;36.581;39.468933;-0.34098;69.3;NaN;;17.717;;0 / 20;2225;2021-10-20 00:26:14:845
8.5421;-5.397;0.665;-5.2433;-8.2552;0.7278;-0.2251;0.1752;0.0264;0.0278;-0.0297;0.0151;50.0;-37.86;-1.2;-11.64;30.72;57.31;81.37;5.0;36.581;39.468933;-0.34098;69.3;NaN;;17.717;;0 / 20;2230;2021-10-20 00:26:14:850
8.5421;-5.397;0.665;-5.2672;-8.2504;0.6512;-0.2251;0.1752;0.0264;0.0278;-0.0297;0.0151;50.0;-37.86;-1.2;-11.64;30.72;57.31;81.37;5.0;36.581;39.468933;-0.34098;69.3;NaN;;17.717;;0 / 20;2235;2021-10-20 00:26:14:855
8.5421;-5.397;0.665;-5.2672;-8.2504;0.6512;-0.2251;0.1752;0.0264;0.0287;-0.0329;0.0249;50.0;-38.04;-1.14;-11.7;30.72;57.31;81.37;5.0;36.581;39.468933;-0.34098;69.3;NaN;;17.717;;0 / 20;2240;2021-10-20 00:26:14:860
8.516;-5.402;0.675;-5.2672;-8.2504;0.6512;-0.2251;0.1752;0.0264;0.0287;-0.0329;0.0249;50.0;-38.04;-1.14;-11.7;30.72;57.31;81.37;5.0;36.581;39.468933;-0.34098;69.3;NaN;;17.717;;0 / 20;2244;2021-10-20 00:26:14:864
8.516;-5.402;0.675;-5.3008;-8.2313;0.5698;-0.2272;0.158;0.133;0.0287;-0.0329;0.0249;50.0;-38.04;-1.14;-11.7;30.72;57.31;81.37;5.0;36.581;39.468933;-0.34098;69.3;NaN;;17.717;;0 / 20;2250;2021-10-20 00:26:14:870
8.516;-5.402;0.675;-5.3008;-8.2313;0.5698;-0.2272;0.158;0.133;0.0287;-0.0329;0.0249;50.0;-38.04;-1.14;-11.7;30.72;57.31;81.37;5.0;36.581;39.468933;-0.34098;69.3;NaN;;17.717;;0 / 20;2254;2021-10-20 00:26:14:874
8.483;-5.447;0.617;-5.3008;-8.2313;0.5698;-0.2272;0.158;0.133;0.0287;-0.0329;0.0249;50.0;-37.74;-0.9;-11.64;27.99;57.07;83.86;5.0;36.581;39.468933;-0.34098;69.3;NaN;;17.717;;0 / 20;2260;2021-10-20 00:26:14:880
8.483;-5.447;0.617;-5.3008;-8.2313;0.5698;-0.2272;0.158;0.133;0.0287;-0.0329;0.0249;50.0;-37.74;-0.9;-11.64;27.99;57.07;83.86;5.0;36.581;39.468933;-0.34098;69.3;NaN;;17.717;;0 / 20;2264;2021-10-20 00:26:14:884
8.483;-5.447;0.617;-5.2625;-8.2552;0.5842;-0.2433;0.1672;0.1842;0.0281;-0.0378;0.0293;50.0;-37.74;-0.9;-11.64;27.99;57.07;83.86;5.0;36.581;39.468933;-0.34098;69.3;NaN;;17.717;;0 / 20;2270;2021-10-20 00:26:14:890
8.495;-5.4041;0.6071;-5.2625;-8.2552;0.5842;-0.2433;0.1672;0.1842;0.0281;-0.0378;0.0293;50.0;-37.56;-1.14;-11.81;27.99;57.07;83.86;5.0;36.581;39.468933;-0.34098;69.3;NaN;;17.717;;0 / 20;2275;2021-10-20 00:26:14:895
8.495;-5.4041;0.6071;-5.2385;-8.2648;0.6656;-0.2728;0.1358;0.1117;0.0232;-0.0415;0.0279;50.0;-37.56;-1.14;-11.81;27.99;57.07;83.86;5.0;36.581;39.468933;-0.34098;69.3;NaN;;17.717;;0 / 20;2280;2021-10-20 00:26:14:900
8.495;-5.4041;0.6071;-5.2385;-8.2648;0.6656;-0.2728;0.1358;0.1117;0.0232;-0.0415;0.0279;50.0;-37.56;-1.14;-11.81;27.99;57.07;83.86;5.0;36.581;39.468933;-0.34098;69.3;NaN;;17.717;;0 / 20;2285;2021-10-20 00:26:14:905
8.5331;-5.3921;0.7181;-5.2385;-8.2648;0.6656;-0.2728;0.1358;0.1117;0.0232;-0.0415;0.0279;50.0;-37.56;-1.14;-11.81;27.99;57.07;83.86;5.0;36.581;39.468933;-0.34098;69.3;NaN;;17.717;;0 / 20;2290;2021-10-20 00:26:14:910
8.5331;-5.3921;0.7181;-5.2098;-8.2744;0.7518;-0.2728;0.1358;0.1117;0.0232;-0.0415;0.0279;50.0;-37.56;-1.14;-11.81;27.99;57.07;83.86;5.0;36.581;39.468933;-0.34098;69.3;NaN;;17.717;;0 / 20;2295;2021-10-20 00:26:14:915
8.5331;-5.3921;0.7181;-5.2098;-8.2744;0.7518;-0.2728;0.1358;0.1117;0.014;-0.0393;0.0223;50.0;-37.74;-0.9;-12.0;30.18;57.54;81.79;5.0;36.581;39.468933;-0.34098;69.3;NaN;;17.717;;0 / 20;2300;2021-10-20 00:26:14:920
8.535;-5.409;0.792;-5.2098;-8.2744;0.7518;-0.2728;0.1358;0.1117;0.014;-0.0393;0.0223;50.0;-37.74;-0.9;-12.0;30.18;57.54;81.79;5.0;36.581;39.468933;-0.34098;69.3;NaN;;17.717;;0 / 20;2305;2021-10-20 00:26:14:925
8.535;-5.409;0.792;-5.2385;-8.26;0.7518;-0.3017;0.1187;0.0114;0.014;-0.0393;0.0223;50.0;-37.74;-0.9;-12.0;30.18;57.54;81.79;5.0;36.581;39.468933;-0.34098;69.3;NaN;;17.717;;0 / 20;2310;2021-10-20 00:26:14:930
8.5661;-5.433;0.794;-5.2385;-8.26;0.7518;-0.3017;0.1187;0.0114;0.014;-0.0393;0.0223;50.0;-37.74;-0.9;-12.0;30.18;57.54;81.79;5.0;36.581;39.468933;-0.34098;69.3;NaN;;17.717;;0 / 20;2315;2021-10-20 00:26:14:935
8.5661;-5.433;0.794;-5.2385;-8.26;0.7518;-0.3017;0.1187;0.0114;0.014;-0.0393;0.0223;50.0;-37.8;-0.9;-12.3;30.18;57.54;81.79;5.0;36.581;39.468933;-0.34098;69.3;NaN;;17.717;;0 / 20;2320;2021-10-20 00:26:14:940
8.5661;-5.433;0.794;-5.2864;-8.2217;0.8188;-0.3164;0.1572;-0.0482;0.014;-0.0393;0.0223;50.0;-37.8;-0.9;-12.3;30.18;57.54;81.79;5.0;36.581;39.468933;-0.34098;69.3;NaN;;17.717;;0 / 20;2325;2021-10-20 00:26:14:945
8.444;-5.495;0.8801;-5.2864;-8.2217;0.8188;-0.3164;0.1572;-0.0482;-0.0015;-0.0302;0.0146;50.0;-37.8;-0.9;-12.3;30.18;57.54;81.79;5.0;36.581;39.468933;-0.34098;69.3;NaN;;17.717;;0 / 20;2330;2021-10-20 00:26:14:950
8.444;-5.495;0.8801;-5.2864;-8.2217;0.8188;-0.3164;0.1572;-0.0482;-0.0015;-0.0302;0.0146;50.0;-37.8;-0.9;-12.3;30.18;57.54;81.79;5.0;36.581;39.468933;-0.34098;69.3;NaN;;17.717;;0 / 20;2335;2021-10-20 00:26:14:955
8.444;-5.495;0.8801;-5.4061;-8.1355;0.8763;-0.1538;0.2369;-0.121;-0.0095;-0.0227;0.0114;50.0;-37.91;-0.9;-12.3;31.02;56.95;81.2;5.0;36.581;39.468933;-0.34098;69.3;NaN;;17.717;;0 / 20;2339;2021-10-20 00:26:14:959
8.36;-5.555;0.9071;-5.4061;-8.1355;0.8763;-0.1538;0.2369;-0.121;-0.0095;-0.0227;0.0114;50.0;-37.91;-0.9;-12.3;31.02;56.95;81.2;5.0;36.581;39.468933;-0.34098;69.3;NaN;;17.717;;0 / 20;2345;2021-10-20 00:26:14:965
8.36;-5.555;0.9071;-5.4061;-8.1355;0.8763;-0.1538;0.2369;-0.121;-0.0095;-0.0227;0.0114;50.0;-37.91;-0.9;-12.3;31.02;56.95;81.2;5.0;36.581;39.468933;-0.34098;69.3;NaN;;17.717;;0 / 20;2350;2021-10-20 00:26:14:970
8.36;-5.555;0.9071;-5.4396;-8.1116;0.9194;-0.1538;0.2369;-0.121;-0.0095;-0.0227;0.0114;50.0;-37.91;-0.9;-12.3;31.02;56.95;81.2;5.0;36.581;39.468933;-0.34098;69.3;NaN;;17.717;;0 / 20;2355;2021-10-20 00:26:14:975
8.3321;-5.5961;0.957;-5.4396;-8.1116;0.9194;-0.1538;0.2369;-0.121;-0.011;-0.0164;0.0102;50.0;-37.91;-0.96;-12.36;31.02;56.95;81.2;5.0;36.581;39.468933;-0.34098;69.3;NaN;;17.717;;0 / 20;2359;2021-10-20 00:26:14:979
8.3321;-5.5961;0.957;-5.4396;-8.1116;0.9194;-0.1538;0.2369;-0.121;-0.011;-0.0164;0.0102;50.0;-37.91;-0.96;-12.36;31.02;56.95;81.2;5.0;36.581;39.468933;-0.34098;69.3;NaN;;17.717;;0 / 20;2366;2021-10-20 00:26:14:986
8.3321;-5.5961;0.957;-5.3534;-8.1594;0.9768;-0.0729;0.3031;-0.1658;-0.011;-0.0164;0.0102;50.0;-37.91;-0.96;-12.36;31.02;56.95;81.2;5.0;36.581;39.468933;-0.34098;69.3;NaN;;17.717;;0 / 20;2369;2021-10-20 00:26:14:989
8.37;-5.4709;1.038;-5.3534;-8.1594;0.9768;-0.0729;0.3031;-0.1658;-0.011;-0.0164;0.0102;50.0;-37.91;-0.96;-12.36;31.02;56.95;81.2;5.0;36.581;39.468933;-0.34098;69.3;NaN;;17.717;;0 / 20;2375;2021-10-20 00:26:14:995
8.37;-5.4709;1.038;-5.3534;-8.1594;0.9768;-0.0729;0.3031;-0.1658;-0.011;-0.0164;0.0102;50.0;-37.8;-1.09;-12.66;34.43;56.3;79.66;5.0;36.581;39.468933;-0.34098;69.3;NaN;;17.717;;0 / 20;2380;2021-10-20 00:26:15:000
8.37;-5.4709;1.038;-5.2146;-8.2552;0.9098;-0.1691;0.2196;-0.2503;-0.0082;-0.0117;0.0099;50.0;-37.8;-1.09;-12.66;34.43;56.3;79.66;5.0;36.581;39.468933;-0.34098;69.3;NaN;;17.717;;0 / 20;2385;2021-10-20 00:26:15:005
8.5211;-5.3591;0.911;-5.2146;-8.2552;0.9098;-0.1691;0.2196;-0.2503;-0.0082;-0.0117;0.0099;50.0;-37.8;-1.09;-12.66;34.43;56.3;79.66;5.0;36.581;39.468933;-0.34098;69.3;NaN;;17.717;;0 / 20;2390;2021-10-20 00:26:15:010
8.5211;-5.3591;0.911;-5.2146;-8.2552;0.9098;-0.1691;0.2196;-0.2503;-0.0082;-0.0117;0.0099;50.0;-37.8;-1.09;-12.66;34.43;56.3;79.66;5.0;36.581;39.468933;-0.34098;69.3;NaN;;17.717;;0 / 20;2394;2021-10-20 00:26:15:014
8.5211;-5.3591;0.911;-5.1571;-8.3079;0.7566;-0.2925;0.0547;-0.0756;-0.014;-0.0052;0.008;50.0;-37.61;-0.9;-12.6;34.43;56.3;79.66;5.0;36.581;39.468933;-0.34098;69.3;NaN;;17.717;;0 / 20;2400;2021-10-20 00:26:15:020
8.5691;-5.313;0.777;-5.1571;-8.3079;0.7566;-0.2925;0.0547;-0.0756;-0.014;-0.0052;0.008;50.0;-37.61;-0.9;-12.6;34.43;56.3;79.66;5.0;36.581;39.468933;-0.34098;69.3;NaN;;17.717;;0 / 20;2405;2021-10-20 00:26:15:025
8.5691;-5.313;0.777;-5.1571;-8.3079;0.7566;-0.2925;0.0547;-0.0756;-0.014;-0.0052;0.008;50.0;-37.61;-0.9;-12.6;34.43;56.3;79.66;5.0;36.581;39.468933;-0.34098;69.3;NaN;;17.717;;0 / 20;2410;2021-10-20 00:26:15:030
8.595;-5.3059;0.7391;-5.1092;-8.3414;0.7278;-0.2925;0.0547;-0.0756;-0.014;-0.0052;0.008;50.0;-37.61;-0.9;-12.6;34.43;56.3;79.66;5.0;36.581;39.468933;-0.34098;69.3;NaN;;17.717;;0 / 20;2415;2021-10-20 00:26:15:035
8.595;-5.3059;0.7391;-5.1092;-8.3414;0.7278;-0.2925;0.0547;-0.0756;-0.0247;0.0087;0.0036;50.0;-37.5;-1.2;-12.54;31.9;58.25;81.89;5.0;36.581;39.468933;-0.34098;69.3;NaN;;17.717;;0 / 20;2420;2021-10-20 00:26:15:040
8.595;-5.3059;0.7391;-5.1092;-8.3414;0.7278;-0.2925;0.0547;-0.0756;-0.0247;0.0087;0.0036;50.0;-37.5;-1.2;-12.54;31.9;58.25;81.89;5.0;36.581;39.468933;-0.34098;69.3;NaN;;17.717;;0 / 20;2425;2021-10-20 00:26:15:045
8.5331;-5.3209;0.7511;-5.1906;-8.2887;0.7135;-0.3474;-0.0144;0.0186;-0.0247;0.0087;0.0036;50.0;-37.5;-1.2;-12.54;31.9;58.25;81.89;5.0;36.581;39.468933;-0.34098;69.3;NaN;;17.717;;0 / 20;2430;2021-10-20 00:26:15:050
8.5331;-5.3209;0.7511;-5.1906;-8.2887;0.7135;-0.3474;-0.0144;0.0186;-0.0247;0.0087;0.0036;50.0;-37.5;-1.2;-12.54;31.9;58.25;81.89;5.0;36.581;39.468933;-0.34098;69.3;NaN;;17.717;;0 / 20;2435;2021-10-20 00:26:15:055
8.5331;-5.3209;0.7511;-5.1906;-8.2887;0.7135;-0.3474;-0.0144;0.0186;-0.0312;0.0275;-8.0E-4;50.0;-37.5;-0.9;-12.41;31.9;58.25;81.89;5.0;36.581;39.468933;-0.34098;69.3;NaN;;17.717;;0 / 20;2440;2021-10-20 00:26:15:060
8.43;-5.407;0.801;-5.2672;-8.2361;0.7997;-0.2388;0.0806;0.0062;-0.0312;0.0275;-8.0E-4;50.0;-37.5;-0.9;-12.41;31.9;58.25;81.89;5.0;36.581;39.468933;-0.34098;69.3;NaN;;17.717;;0 / 20;2445;2021-10-20 00:26:15:065
8.43;-5.407;0.801;-5.2672;-8.2361;0.7997;-0.2388;0.0806;0.0062;-0.0312;0.0275;-8.0E-4;50.0;-37.5;-0.9;-12.41;31.9;58.25;81.89;5.0;38.56;39.468933;-0.34098;69.3;NaN;;17.717;;0 / 20;2451;2021-10-20 00:26:15:071
8.43;-5.407;0.801;-5.2672;-8.2361;0.7997;-0.2388;0.0806;0.0062;-0.0312;0.0275;-8.0E-4;50.0;-37.5;-0.9;-12.41;31.9;58.25;81.89;5.0;38.56;39.468933;-0.34098;69.3;NaN;;17.717;;0 / 20;2454;2021-10-20 00:26:15:074
8.4011;-5.4311;0.8111;-5.296;-8.2169;0.7949;-0.1983;0.1623;-0.085;-0.0312;0.0275;-8.0E-4;50.0;-37.5;-1.2;-12.54;32.83;57.1;81.37;5.0;38.56;39.468933;-0.34098;69.3;NaN;;17.717;;0 / 20;2460;2021-10-20 00:26:15:080
8.4011;-5.4311;0.8111;-5.296;-8.2169;0.7949;-0.1983;0.1623;-0.085;-0.0294;0.0437;-0.0027;50.0;-37.5;-1.2;-12.54;32.83;57.1;81.37;5.0;38.56;39.468933;-0.34098;69.3;NaN;;17.717;;0 / 20;2466;2021-10-20 00:26:15:086
8.4011;-5.4311;0.8111;-5.296;-8.2169;0.7949;-0.1983;0.1623;-0.085;-0.0294;0.0437;-0.0027;50.0;-37.5;-1.2;-12.54;32.83;57.1;81.37;5.0;38.56;39.468933;-0.34098;69.3;NaN;;17.717;;0 / 20;2470;2021-10-20 00:26:15:090
8.411;-5.462;0.911;-5.3056;-8.1977;0.8906;-0.1983;0.1623;-0.085;-0.0294;0.0437;-0.0027;50.0;-37.5;-1.2;-12.54;32.83;57.1;81.37;5.0;38.56;39.468933;-0.34098;69.3;NaN;;17.717;;0 / 20;2474;2021-10-20 00:26:15:094
8.411;-5.462;0.911;-5.3056;-8.1977;0.8906;-0.1983;0.1623;-0.085;-0.0214;0.051;-0.0022;50.0;-37.26;-1.2;-12.54;32.83;57.1;81.37;5.0;38.56;39.468933;-0.34098;69.3;NaN;;17.717;;0 / 20;2480;2021-10-20 00:26:15:100
8.411;-5.462;0.911;-5.3056;-8.1977;0.8906;-0.1983;0.1623;-0.085;-0.0214;0.051;-0.0022;50.0;-37.26;-1.2;-12.54;32.83;57.1;81.37;5.0;38.56;39.468933;-0.34098;69.3;NaN;;17.717;;0 / 20;2484;2021-10-20 00:26:15:104
8.42;-5.479;1.0481;-5.3103;-8.1834;1.0199;-0.1853;0.176;-0.1334;-0.0214;0.051;-0.0022;51.0;-37.26;-1.2;-12.54;32.83;57.1;81.37;5.0;38.56;39.468933;-0.34098;69.3;NaN;;17.717;;0 / 20;2490;2021-10-20 00:26:15:110
8.42;-5.479;1.0481;-5.3103;-8.1834;1.0199;-0.1853;0.176;-0.1334;-0.0214;0.051;-0.0022;51.0;-37.26;-1.2;-12.54;32.83;57.1;81.37;5.0;38.56;39.468933;-0.34098;69.3;NaN;;17.717;;0 / 20;2495;2021-10-20 00:26:15:115
8.42;-5.479;1.0481;-5.3103;-8.1834;1.0199;-0.1853;0.176;-0.1334;-0.0091;0.0545;-0.0011;51.0;-37.26;-1.39;-12.54;35.46;56.54;79.13;5.0;38.56;39.468933;-0.34098;69.3;NaN;;17.717;;0 / 20;2500;2021-10-20 00:26:15:120
8.454;-5.447;1.086;-5.2481;-8.2217;1.0056;-0.186;0.1488;-0.2752;-0.0091;0.0545;-0.0011;51.0;-37.26;-1.39;-12.54;35.46;56.54;79.13;5.0;38.56;39.468933;-0.34098;69.3;NaN;;17.717;;0 / 20;2504;2021-10-20 00:26:15:124
8.454;-5.447;1.086;-5.2481;-8.2217;1.0056;-0.186;0.1488;-0.2752;-0.0091;0.0545;-0.0011;51.0;-37.26;-1.39;-12.54;35.46;56.54;79.13;5.0;38.56;39.468933;-0.34098;69.3;NaN;;17.717;;0 / 20;2510;2021-10-20 00:26:15:130
8.4971;-5.409;1.0481;-5.2194;-8.2408;1.0008;-0.186;0.1488;-0.2752;-0.0091;0.0545;-0.0011;51.0;-37.26;-1.39;-12.54;35.46;56.54;79.13;5.0;38.56;39.468933;-0.34098;69.3;NaN;;17.717;;0 / 20;2515;2021-10-20 00:26:15:135
8.4971;-5.409;1.0481;-5.2194;-8.2408;1.0008;-0.186;0.1488;-0.2752;-0.0091;0.0545;-0.0011;51.0;-37.44;-1.2;-12.41;35.46;56.54;79.13;5.0;38.56;39.468933;-0.34098;69.3;NaN;;17.717;;0 / 20;2520;2021-10-20 00:26:15:140
8.4971;-5.409;1.0481;-5.2194;-8.2408;1.0008;-0.186;0.1488;-0.2752;-0.0091;0.0545;-0.0011;51.0;-37.44;-1.2;-12.41;35.46;56.54;79.13;5.0;38.56;39.468933;-0.34098;69.3;NaN;;17.717;;0 / 20;2524;2021-10-20 00:26:15:144
8.523;-5.4;1.002;-5.2289;-8.2456;0.9481;-0.2818;0.1221;-0.2393;-0.0036;0.055;-0.0041;51.0;-37.44;-1.2;-12.41;35.46;56.54;79.13;5.0;38.56;39.468933;-0.34098;69.3;NaN;;17.717;;0 / 20;2530;2021-10-20 00:26:15:150
8.523;-5.4;1.002;-5.2289;-8.2456;0.9481;-0.2818;0.1221;-0.2393;-0.0036;0.055;-0.0041;51.0;-37.44;-1.2;-12.41;35.46;56.54;79.13;5.0;38.56;39.468933;-0.34098;69.3;NaN;;17.717;;0 / 20;2535;2021-10-20 00:26:15:155
8.523;-5.4;1.002;-5.2289;-8.2456;0.9481;-0.2818;0.1221;-0.2393;-0.0063;0.051;-0.0102;51.0;-37.61;-1.09;-12.36;32.58;57.2;79.72;5.0;38.56;39.468933;-0.34098;69.3;NaN;;17.717;;0 / 20;2540;2021-10-20 00:26:15:160
8.55;-5.361;0.957;-5.2146;-8.2552;0.9098;-0.3224;0.0829;-0.1499;-0.0063;0.051;-0.0102;51.0;-37.61;-1.09;-12.36;32.58;57.2;79.72;5.0;38.56;39.468933;-0.34098;69.3;NaN;;17.717;;0 / 20;2545;2021-10-20 00:26:15:165
8.55;-5.361;0.957;-5.2146;-8.2552;0.9098;-0.3224;0.0829;-0.1499;-0.0063;0.051;-0.0102;51.0;-37.61;-1.09;-12.36;32.58;57.2;79.72;5.0;38.56;39.468933;-0.34098;69.3;NaN;;17.717;;0 / 20;2549;2021-10-20 00:26:15:169
8.55;-5.361;0.957;-5.2146;-8.2552;0.9098;-0.3224;0.0829;-0.1499;-0.0063;0.051;-0.0102;51.0;-37.61;-1.09;-12.36;32.58;57.2;79.72;5.0;38.56;39.468933;-0.34098;69.3;NaN;;17.717;;0 / 20;2555;2021-10-20 00:26:15:175
8.5571;-5.3921;0.923;-5.2098;-8.26;0.8811;-0.2946;0.1122;-0.1422;-0.0063;0.051;-0.0102;51.0;-37.74;-1.2;-12.41;32.58;57.2;79.72;5.0;38.56;39.468933;-0.34098;69.3;NaN;;17.717;;0 / 20;2559;2021-10-20 00:26:15:179
8.5571;-5.3921;0.923;-5.2098;-8.26;0.8811;-0.2946;0.1122;-0.1422;0.001;0.0459;-0.0124;51.0;-37.74;-1.2;-12.41;32.58;57.2;79.72;5.0;38.56;39.468933;-0.34098;69.3;NaN;;17.717;;0 / 20;2565;2021-10-20 00:26:15:185
8.5571;-5.3921;0.923;-5.2098;-8.26;0.8811;-0.2946;0.1122;-0.1422;0.001;0.0459;-0.0124;51.0;-37.74;-1.2;-12.41;32.58;57.2;79.72;5.0;38.56;39.468933;-0.34098;69.3;NaN;;17.717;;0 / 20;2569;2021-10-20 00:26:15:189
8.562;-5.368;0.8231;-5.1954;-8.2791;0.7757;-0.2946;0.1122;-0.1422;0.001;0.0459;-0.0124;51.0;-37.74;-1.2;-12.41;32.58;57.2;79.72;5.0;38.56;39.468933;-0.34098;69.3;NaN;;17.717;;0 / 20;2575;2021-10-20 00:26:15:195
8.562;-5.368;0.8231;-5.1954;-8.2791;0.7757;-0.2946;0.1122;-0.1422;0.0087;0.0399;-0.0111;51.0;-38.16;-1.09;-12.54;31.98;57.61;81.51;5.0;38.56;39.468933;-0.34098;69.3;NaN;;17.717;;0 / 20;2580;2021-10-20 00:26:15:200
8.562;-5.368;0.8231;-5.1954;-8.2791;0.7757;-0.2946;0.1122;-0.1422;0.0087;0.0399;-0.0111;51.0;-38.16;-1.09;-12.54;31.98;57.61;81.51;5.0;38.56;39.468933;-0.34098;69.3;NaN;;17.717;;0 / 20;2585;2021-10-20 00:26:15:205
8.5331;-5.304;0.708;-5.1475;-8.3222;0.6608;-0.3213;0.1005;0.0151;0.0087;0.0399;-0.0111;51.0;-38.16;-1.09;-12.54;31.98;57.61;81.51;5.0;38.56;39.468933;-0.34098;69.3;NaN;;17.717;;0 / 20;2589;2021-10-20 00:26:15:209
8.5331;-5.304;0.708;-5.1475;-8.3222;0.6608;-0.3213;0.1005;0.0151;0.0087;0.0399;-0.0111;51.0;-38.16;-1.09;-12.54;31.98;57.61;81.51;5.0;38.56;39.468933;-0.34098;69.3;NaN;;17.717;;0 / 20;2595;2021-10-20 00:26:15:215
8.5331;-5.304;0.708;-5.1475;-8.3222;0.6608;-0.3213;0.1005;0.0151;0.0087;0.0338;-0.0115;51.0;-38.16;-1.2;-12.54;31.98;57.61;81.51;5.0;38.56;39.468933;-0.34098;69.3;NaN;;17.717;;0 / 20;2600;2021-10-20 00:26:15:220
8.552;-5.28;0.663;-5.1906;-8.2983;0.6225;-0.307;0.0753;0.1714;0.0087;0.0338;-0.0115;51.0;-38.16;-1.2;-12.54;31.98;57.61;81.51;5.0;38.56;39.468933;-0.34098;69.3;NaN;;17.717;;0 / 20;2605;2021-10-20 00:26:15:225
8.552;-5.28;0.663;-5.1906;-8.2983;0.6225;-0.307;0.0753;0.1714;0.0087;0.0338;-0.0115;51.0;-38.16;-1.2;-12.54;31.98;57.61;81.51;5.0;38.56;39.468933;-0.34098;69.3;NaN;;17.717;;0 / 20;2609;2021-10-20 00:26:15:229
8.552;-5.28;0.663;-5.1906;-8.2983;0.6225;-0.307;0.0753;0.1714;0.0087;0.0338;-0.0115;51.0;-38.16;-1.2;-12.54;31.98;57.61;81.51;5.0;38.56;39.468933;-0.34098;69.3;NaN;;17.717;;0 / 20;2615;2021-10-20 00:26:15:235
8.5181;-5.3209;0.653;-5.1906;-8.2935;0.6273;-0.2787;0.0642;0.2309;0.0087;0.0338;-0.0115;51.0;-38.21;-1.2;-12.54;30.09;57.79;83.16;5.0;38.56;39.468933;-0.34098;69.3;NaN;;17.717;;0 / 20;2619;2021-10-20 00:26:15:239
8.5181;-5.3209;0.653;-5.1906;-8.2935;0.6273;-0.2787;0.0642;0.2309;0.0025;0.0292;-0.0151;51.0;-38.21;-1.2;-12.54;30.09;57.79;83.16;5.0;38.56;39.468933;-0.34098;69.3;NaN;;17.717;;0 / 20;2625;2021-10-20 00:26:15:245
8.5181;-5.3209;0.653;-5.1906;-8.2935;0.6273;-0.2787;0.0642;0.2309;0.0025;0.0292;-0.0151;51.0;-38.21;-1.2;-12.54;30.09;57.79;83.16;5.0;38.56;39.468933;-0.34098;69.3;NaN;;17.717;;0 / 20;2630;2021-10-20 00:26:15:250
8.535;-5.2871;0.6191;-5.1571;-8.3222;0.5842;-0.2787;0.0642;0.2309;0.0025;0.0292;-0.0151;51.0;-38.21;-1.2;-12.54;30.09;57.79;83.16;5.0;38.56;39.468933;-0.34098;69.3;NaN;;17.717;;0 / 20;2635;2021-10-20 00:26:15:255
8.535;-5.2871;0.6191;-5.1571;-8.3222;0.5842;-0.2787;0.0642;0.2309;0.0025;0.0292;-0.0151;51.0;-38.16;-1.2;-12.3;30.09;57.79;83.16;5.0;38.56;39.468933;-0.34098;69.3;NaN;;17.717;;0 / 20;2640;2021-10-20 00:26:15:260
8.535;-5.2871;0.6191;-5.1571;-8.3222;0.5842;-0.2787;0.0642;0.2309;-0.0026;0.0275;-0.0223;51.0;-38.16;-1.2;-12.3;30.09;57.79;83.16;5.0;38.56;39.468933;-0.34098;69.3;NaN;;17.717;;0 / 20;2645;2021-10-20 00:26:15:265
8.5811;-5.277;0.7271;-5.1332;-8.327;0.7135;-0.2904;0.027;0.2352;-0.0026;0.0275;-0.0223;51.0;-38.16;-1.2;-12.3;30.09;57.79;83.16;5.0;38.56;39.468933;-0.34098;69.3;NaN;;17.717;;0 / 20;2650;2021-10-20 00:26:15:270
8.5811;-5.277;0.7271;-5.1332;-8.327;0.7135;-0.2904;0.027;0.2352;-0.0026;0.0275;-0.0223;51.0;-38.21;-1.26;-12.41;29.69;58.1;82.09;5.0;38.56;39.468933;-0.34098;69.3;NaN;;17.717;;0 / 20;2655;2021-10-20 00:26:15:275
8.5811;-5.277;0.7271;-5.1332;-8.327;0.7135;-0.2904;0.027;0.2352;-0.0026;0.0275;-0.0223;51.0;-38.21;-1.26;-12.41;29.69;58.1;82.09;5.0;38.56;39.468933;-0.34098;69.3;NaN;;17.717;;0 / 20;2660;2021-10-20 00:26:15:280
8.5541;-5.34;0.8111;-5.1811;-8.2887;0.7661;-0.3556;0.032;0.0878;-0.0026;0.0275;-0.0223;51.0;-38.21;-1.26;-12.41;29.69;58.1;82.09;5.0;38.56;39.468933;-0.34098;69.3;NaN;;17.717;;0 / 20;2665;2021-10-20 00:26:15:285
8.5541;-5.34;0.8111;-5.1811;-8.2887;0.7661;-0.3556;0.032;0.0878;-0.0136;0.0237;-0.0319;51.0;-38.21;-1.26;-12.41;29.69;58.1;82.09;5.0;38.56;39.468933;-0.34098;69.3;NaN;;17.717;;0 / 20;2670;2021-10-20 00:26:15:290
8.42;-5.435;0.8321;-5.1811;-8.2887;0.7661;-0.3556;0.032;0.0878;-0.0136;0.0237;-0.0319;51.0;-38.21;-1.26;-12.41;29.69;58.1;82.09;5.0;38.56;39.468933;-0.34098;69.3;NaN;;17.717;;0 / 20;2675;2021-10-20 00:26:15:295
8.42;-5.435;0.8321;-5.3439;-8.1834;0.7805;-0.1617;0.2411;0.0323;-0.0136;0.0237;-0.0319;51.0;-37.91;-1.56;-12.36;29.69;58.1;82.09;5.0;38.56;39.468933;-0.34098;69.3;NaN;;17.717;;0 / 20;2680;2021-10-20 00:26:15:300
8.42;-5.435;0.8321;-5.3439;-8.1834;0.7805;-0.1617;0.2411;0.0323;-0.0136;0.0237;-0.0319;51.0;-37.91;-1.56;-12.36;29.69;58.1;82.09;5.0;38.56;39.468933;-0.34098;69.3;NaN;;17.717;;0 / 20;2685;2021-10-20 00:26:15:305
8.42;-5.435;0.8321;-5.3439;-8.1834;0.7805;-0.1617;0.2411;0.0323;-0.0136;0.0237;-0.0319;51.0;-37.91;-1.56;-12.36;29.69;58.1;82.09;5.0;38.56;39.468933;-0.34098;69.3;NaN;;17.717;;0 / 20;2689;2021-10-20 00:26:15:309
8.1761;-5.6681;0.983;-5.5929;-7.9918;1.0151;-0.1617;0.2411;0.0323;-0.0136;0.0237;-0.0319;51.0;-37.91;-1.56;-12.36;29.69;58.1;82.09;5.0;38.56;39.468933;-0.34098;69.3;NaN;;17.717;;0 / 20;2695;2021-10-20 00:26:15:315
8.1761;-5.6681;0.983;-5.5929;-7.9918;1.0151;-0.1617;0.2411;0.0323;-0.0136;0.0237;-0.0319;51.0;-37.86;-1.5;-12.54;34.96;54.58;79.71;5.0;38.56;39.468933;-0.34098;69.3;NaN;;17.717;;0 / 20;2700;2021-10-20 00:26:15:320
8.004;-5.8061;1.1681;-5.7078;-7.8865;1.1732;0.1538;0.5029;-0.2298;-0.0136;0.0237;-0.0319;51.0;-37.86;-1.5;-12.54;34.96;54.58;79.71;5.0;38.56;39.468933;-0.34098;69.3;NaN;;17.717;;0 / 20;2705;2021-10-20 00:26:15:325
8.004;-5.8061;1.1681;-5.7078;-7.8865;1.1732;0.1538;0.5029;-0.2298;-0.0136;0.0237;-0.0319;51.0;-37.86;-1.5;-12.54;34.96;54.58;79.71;5.0;38.56;39.468933;-0.34098;69.3;NaN;;17.717;;0 / 20;2709;2021-10-20 00:26:15:329
8.004;-5.8061;1.1681;-5.7078;-7.8865;1.1732;0.1538;0.5029;-0.2298;-0.0136;0.0237;-0.0319;51.0;-37.86;-1.5;-12.54;34.96;54.58;79.71;5.0;38.56;39.468933;-0.34098;69.3;NaN;;17.717;;0 / 20;2715;2021-10-20 00:26:15:335
8.004;-5.8061;1.1681;-5.7078;-7.8865;1.1732;0.1538;0.5029;-0.2298;-0.0136;0.0237;-0.0319;51.0;-37.91;-1.56;-12.71;34.96;54.58;79.71;5.0;38.56;39.468933;-0.34098;69.3;NaN;;17.717;;0 / 20;2719;2021-10-20 00:26:15:339
7.8551;-5.854;1.259;-5.8227;-7.7764;1.3408;0.3731;0.5998;-0.4101;-0.0136;0.0237;-0.0319;51.0;-37.91;-1.56;-12.71;34.96;54.58;79.71;5.0;38.56;39.468933;-0.34098;69.3;NaN;;17.717;;0 / 20;2725;2021-10-20 00:26:15:345
7.8551;-5.854;1.259;-5.8227;-7.7764;1.3408;0.3731;0.5998;-0.4101;-0.0136;0.0237;-0.0319;51.0;-37.91;-1.56;-12.71;34.96;54.58;79.71;5.0;38.56;39.468933;-0.34098;69.3;NaN;;17.717;;0 / 20;2729;2021-10-20 00:26:15:349
7.796;-5.9;1.479;-5.8227;-7.7764;1.3408;0.3731;0.5998;-0.4101;-0.0136;0.0237;-0.0319;51.0;-37.91;-1.56;-12.71;34.96;54.58;79.71;5.0;38.56;39.468933;-0.34098;69.3;NaN;;17.717;;0 / 20;2735;2021-10-20 00:26:15:355
7.796;-5.9;1.479;-5.861;-7.7237;1.4844;0.3731;0.5998;-0.4101;-0.0136;0.0237;-0.0319;51.0;-37.74;-1.5;-12.71;38.72;52.46;77.03;5.0;38.56;39.468933;-0.34098;69.3;NaN;;17.717;;0 / 20;2739;2021-10-20 00:26:15:359
7.796;-5.9;1.479;-5.861;-7.7237;1.4844;0.3731;0.5998;-0.4101;-0.0136;0.0237;-0.0319;51.0;-37.74;-1.5;-12.71;38.72;52.46;77.03;5.0;38.56;39.468933;-0.34098;69.3;NaN;;17.717;;0 / 20;2745;2021-10-20 00:26:15:365
7.8101;-5.888;1.491;-5.8179;-7.7572;1.4605;0.4551;0.6685;-0.6686;0.0074;-0.003;-0.0029;51.0;-37.74;-1.5;-12.71;38.72;52.46;77.03;5.0;38.56;39.468933;-0.34098;69.3;NaN;;17.717;;0 / 20;2749;2021-10-20 00:26:15:369
7.8101;-5.888;1.491;-5.8179;-7.7572;1.4605;0.4551;0.6685;-0.6686;0.0074;-0.003;-0.0029;51.0;-37.74;-1.5;-12.71;38.72;52.46;77.03;5.0;38.56;39.468933;-0.34098;69.3;NaN;;17.717;;0 / 20;2755;2021-10-20 00:26:15:375
8.013;-5.6921;1.395;-5.5833;-7.9535;1.3312;0.2898;0.4621;-0.5546;0.0534;-0.0033;0.0183;51.0;-37.91;-1.5;-12.96;38.72;52.46;77.03;5.0;38.56;39.468933;-0.34098;69.3;NaN;;17.717;;0 / 20;2760;2021-10-20 00:26:15:380
8.013;-5.6921;1.395;-5.5833;-7.9535;1.3312;0.2898;0.4621;-0.5546;0.0534;-0.0033;0.0183;51.0;-37.91;-1.5;-12.96;38.72;52.46;77.03;5.0;38.56;39.468933;-0.34098;69.3;NaN;;17.717;;0 / 20;2765;2021-10-20 00:26:15:385
8.013;-5.6921;1.395;-5.5833;-7.9535;1.3312;0.2898;0.4621;-0.5546;0.0534;-0.0033;0.0183;51.0;-37.91;-1.5;-12.96;38.72;52.46;77.03;5.0;38.879;39.468933;-0.34098;69.3;NaN;;17.717;;0 / 20;2769;2021-10-20 00:26:15:389
8.234;-5.4911;1.206;-5.363;-8.1355;1.1109;0.2898;0.4621;-0.5546;0.0534;-0.0033;0.0183;51.0;-37.91;-1.5;-12.96;38.72;52.46;77.03;5.0;38.879;39.468933;-0.34098;69.3;NaN;;17.717;;0 / 20;2775;2021-10-20 00:26:15:395
8.234;-5.4911;1.206;-5.363;-8.1355;1.1109;0.2898;0.4621;-0.5546;0.0908;-0.007;0.0532;51.0;-37.86;-1.56;-12.84;36.56;56.05;78.3;5.0;38.879;39.468933;-0.34098;69.3;NaN;;17.717;;0 / 20;2780;2021-10-20 00:26:15:400
8.234;-5.4911;1.206;-5.363;-8.1355;1.1109;0.2898;0.4621;-0.5546;0.0908;-0.007;0.0532;51.0;-37.86;-1.56;-12.84;36.56;56.05;78.3;5.0;38.879;39.468933;-0.34098;69.3;NaN;;17.717;;0 / 20;2785;2021-10-20 00:26:15:405
8.456;-5.337;0.938;-5.363;-8.1355;1.1109;0.2898;0.4621;-0.5546;0.0908;-0.007;0.0532;51.0;-37.86;-1.56;-12.84;36.56;56.05;78.3;5.0;38.879;39.468933;-0.34098;69.3;NaN;;17.717;;0 / 20;2789;2021-10-20 00:26:15:409
8.456;-5.337;0.938;-5.138;-8.3079;0.8859;-0.0289;0.196;-0.2875;0.0908;-0.007;0.0532;51.0;-37.86;-1.56;-12.84;36.56;56.05;78.3;5.0;38.879;39.468933;-0.34098;69.3;NaN;;17.717;;0 / 20;2795;2021-10-20 00:26:15:415
8.456;-5.337;0.938;-5.138;-8.3079;0.8859;-0.0289;0.196;-0.2875;0.0908;-0.007;0.0532;51.0;-38.1;-1.8;-12.9;36.56;56.05;78.3;5.0;38.879;39.468933;-0.34098;69.3;NaN;;17.717;;0 / 20;2799;2021-10-20 00:26:15:419
8.6021;-5.184;0.828;-5.0374;-8.3845;0.7326;-0.3238;-0.0071;0.0214;0.1057;-0.0114;0.0866;51.0;-38.1;-1.8;-12.9;36.56;56.05;78.3;5.0;38.879;39.468933;-0.34098;69.3;NaN;;17.717;;0 / 20;2805;2021-10-20 00:26:15:425
8.6021;-5.184;0.828;-5.0374;-8.3845;0.7326;-0.3238;-0.0071;0.0214;0.1057;-0.0114;0.0866;51.0;-38.1;-1.8;-12.9;36.56;56.05;78.3;5.0;38.879;39.468933;-0.34098;69.3;NaN;;17.717;;0 / 20;2810;2021-10-20 00:26:15:430
8.6021;-5.184;0.828;-5.0374;-8.3845;0.7326;-0.3238;-0.0071;0.0214;0.1057;-0.0114;0.0866;51.0;-38.1;-1.8;-12.9;36.56;56.05;78.3;5.0;38.879;39.468933;-0.34098;69.3;NaN;;17.717;;0 / 20;2815;2021-10-20 00:26:15:435
