sep=;
ACCELEROMETER X (m/s²);ACCELEROMETER Y (m/s²);ACCELEROMETER Z (m/s²);GRAVITY X (m/s²);GRAVITY Y (m/s²);GRAVITY Z (m/s²);LINEAR ACCELERATION X (m/s²);LINEAR ACCELERATION Y (m/s²);LINEAR ACCELERATION Z (m/s²);GYROSCOPE X (rad/s);GYROSCOPE Y (rad/s);GYROSCOPE Z (rad/s);LIGHT (lux);MAGNETIC FIELD X (μT);MAGNETIC FIELD Y (μT);MAGNETIC FIELD Z (μT);ORIENTATION Z (azimuth °);ORIENTATION X (pitch °);ORIENTATION Y (roll °);PROXIMITY (m);SOUND LEVEL (dB);LOCATION Latitude : ;LOCATION Longitude : ;LOCATION Altitude ( m);LOCATION Altitude-google ( m);LOCATION Speed ( Kmh);LOCATION Accuracy ( m);LOCATION ORIENTATION (°);Satellites in range;Time since start in ms ;YYYY-MO-DD HH-MI-SS_SSS
5.459;4.9661;9.047;4.7262;-3.2609;7.9487;-1.5733;0.6293;-0.2174;-0.0896;-0.5998;0.1954;47.0;6.36;-41.59;-10.14;192.97;12.92;-27.48;5.0;46.816;39.468754;-0.340003;18.2;NaN;5.33;9.0;160.49;8 / 33;11;2021-10-20 19:32:22:768
3.5801;-0.234;8.691;0.5555;-3.3423;9.2033;-2.832;1.9701;-1.1312;-0.0896;-0.5998;0.1954;61.0;6.6;-41.81;-12.0;190.07;19.93;-3.45;5.0;46.816;39.468754;-0.340003;18.2;NaN;5.33;9.0;160.49;8 / 33;60;2021-10-20 19:32:22:817
2.5871;-1.11;0.615;-3.7733;-8.8059;2.0973;-1.7541;3.2847;3.2544;-0.8614;-0.6721;0.5077;61.0;6.6;-41.81;-12.0;190.07;19.93;-3.45;5.0;46.816;39.468754;-0.340003;18.2;NaN;5.33;9.0;160.49;8 / 33;111;2021-10-20 19:32:22:868
4.784;-1.1771;3.4991;-1.9058;-7.7716;5.6695;-0.4474;4.9041;6.3139;-1.8223;-1.1705;0.9082;61.0;5.81;-41.34;-14.64;160.81;63.88;60.93;5.0;47.09;39.46876;-0.340023;18.2;NaN;6.62;7.7;167.61;9 / 33;161;2021-10-20 19:32:22:918
4.784;-1.1771;3.4991;-1.9058;-7.7716;5.6695;-0.4474;4.9041;6.3139;-1.8223;-1.1705;0.9082;61.0;5.81;-41.34;-14.64;160.81;63.88;60.93;5.0;47.09;39.46876;-0.340023;18.2;NaN;6.62;7.7;167.61;9 / 33;211;2021-10-20 19:32:22:968
5.72;-4.586;-1.002;-6.0813;-7.58;-1.3216;0.7531;5.3551;10.079;-2.6913;-3.7902;2.2507;61.0;2.21;-39.66;-17.81;174.29;52.42;18.58;5.0;47.09;39.46876;-0.340023;18.2;NaN;6.62;7.7;167.61;9 / 33;261;2021-10-20 19:32:23:018
8.291;-4.758;3.947;-4.5155;-7.8626;3.7397;-1.0698;4.1302;2.6802;-2.6913;-3.7902;2.2507;61.0;-8.16;-37.14;-17.46;174.29;52.42;18.58;5.0;47.09;39.46876;-0.340023;18.2;NaN;6.62;7.7;167.61;9 / 33;311;2021-10-20 19:32:23:068
10.194;-4.344;6.158;-3.3519;-7.8865;4.7645;-2.4446;2.5632;-0.4045;-1.77;-2.1915;1.4746;53.0;-8.16;-37.14;-17.46;174.29;52.42;18.58;5.0;47.09;39.46876;-0.340023;18.2;NaN;6.62;7.7;167.61;9 / 33;361;2021-10-20 19:32:23:118
14.9741;-2.999;3.02;-1.8866;-9.4332;1.8962;-2.4446;2.5632;-0.4045;-0.2475;-1.0762;0.7751;53.0;-20.46;-32.81;-11.81;128.11;53.55;35.13;5.0;47.09;39.46876;-0.340023;18.2;NaN;6.62;7.7;167.61;9 / 33;411;2021-10-20 19:32:23:168
14.9741;-2.999;3.02;-1.8866;-9.4332;1.8962;-6.9732;0.749;2.2043;-0.2475;-1.0762;0.7751;53.0;-20.46;-32.81;-11.81;128.11;53.55;35.13;5.0;56.473;39.46876;-0.340023;18.2;NaN;6.62;7.7;167.61;9 / 33;461;2021-10-20 19:32:23:218
16.2431;-3.75;4.0781;-2.1404;-9.2847;2.3272;-6.4056;3.3001;1.9946;0.6366;-1.243;0.3065;53.0;-28.69;-25.14;-7.5;74.22;74.17;44.85;5.0;56.473;39.46876;-0.340023;18.2;NaN;6.62;7.7;167.61;9 / 33;510;2021-10-20 19:32:23:267
15.9341;-10.5;0.1811;-5.3965;-8.1882;0.091;-9.1975;8.5158;3.9066;0.5438;-1.4425;0.2423;53.0;-33.0;-16.56;-7.8;74.22;74.17;44.85;5.0;56.473;39.46876;-0.340023;18.2;NaN;6.62;7.7;167.61;9 / 33;560;2021-10-20 19:32:23:317
23.6081;-1.0841;4.1981;0.7278;-9.5289;2.1979;-9.1975;8.5158;3.9066;0.5438;-1.4425;0.2423;53.0;-33.0;-16.56;-7.8;74.22;74.17;44.85;5.0;56.473;39.46876;-0.340023;18.2;NaN;6.62;7.7;167.61;9 / 33;611;2021-10-20 19:32:23:368
18.8351;0.167;8.025;-2.1739;-8.9974;3.2465;-15.359;-4.3365;-2.2235;0.2963;-1.0373;-0.1116;53.0;-34.69;-7.09;-8.7;124.19;76.34;-18.32;5.0;56.473;39.468746;-0.340017;18.2;NaN;5.44;6.7;167.33;10 / 33;661;2021-10-20 19:32:23:418
9.3371;-6.2921;-1.881;-2.1739;-8.9974;3.2465;-1.664;2.5939;2.5266;0.2963;-1.0373;-0.1116;32.0;-35.76;-0.96;-9.24;124.19;76.34;-18.32;5.0;56.473;39.468746;-0.340017;18.2;NaN;5.44;6.7;167.33;10 / 33;710;2021-10-20 19:32:23:467
10.182;-6.8501;-0.4451;-6.4165;-7.2496;-1.5706;-0.8519;4.4066;3.2262;0.2703;-0.496;-0.4576;32.0;-35.76;-0.96;-9.24;124.19;76.34;-18.32;5.0;49.997;39.468746;-0.340017;18.2;NaN;5.44;6.7;167.33;10 / 33;760;2021-10-20 19:32:23:517
10.182;-6.8501;-0.4451;-6.0286;-7.7285;-0.2203;-0.8519;4.4066;3.2262;-0.9263;-0.6105;0.9241;32.0;-37.14;-4.01;-8.46;13.87;52.03;92.09;5.0;49.997;39.468746;-0.340017;18.2;NaN;5.44;6.7;167.33;10 / 33;810;2021-10-20 19:32:23:567
7.1801;-7.111;1.256;-7.1587;-6.4548;1.8052;1.9494;4.0816;0.6686;-0.9263;-0.6105;0.9241;32.0;-37.44;-10.99;-6.41;45.98;41.16;75.85;5.0;49.997;39.468746;-0.340017;18.2;NaN;5.44;6.7;167.33;10 / 33;860;2021-10-20 19:32:23:617
4.983;-6.47;0.809;-7.1587;-6.4548;1.8052;1.9494;4.0816;0.6686;-0.5451;-0.6215;1.7416;32.0;-37.44;-10.99;-6.41;45.98;41.16;75.85;5.0;49.997;39.468746;-0.340017;18.2;NaN;5.44;6.7;167.33;10 / 33;910;2021-10-20 19:32:23:667
3.434;-6.5531;-0.579;-8.3175;-5.1523;-0.6704;4.1867;2.1055;1.288;0.118;-0.5467;1.9738;32.0;-36.24;-16.56;-7.14;41.1;31.69;94.61;5.0;49.997;39.468746;-0.340017;18.2;NaN;5.44;6.7;167.33;10 / 33;960;2021-10-20 19:32:23:717
3.1421;-8.375;0.2681;-9.2273;-3.3184;0.1772;5.1042;2.2082;0.8919;0.118;-0.5467;1.9738;32.0;-36.24;-16.56;-7.14;41.1;31.69;94.61;5.0;49.997;39.468746;-0.340017;18.2;NaN;5.44;6.7;167.33;10 / 33;1010;2021-10-20 19:32:23:767
7.731;-10.6511;-1.8829;-7.8386;-5.7892;-1.0918;0.4799;2.5031;1.9958;-0.1453;-0.558;2.0855;41.0;-35.1;-20.46;-6.9;132.49;19.78;88.9;5.0;49.997;39.468746;-0.340017;18.2;NaN;5.44;6.7;167.33;10 / 33;1061;2021-10-20 19:32:23:818
8.8031;-9.313;1.2041;-7.0916;-6.7086;0.9146;0.4799;2.5031;1.9958;-0.3244;-0.579;1.1261;41.0;-35.34;-21.24;-5.1;132.49;19.78;88.9;5.0;48.54;39.468746;-0.340017;18.2;NaN;5.44;6.7;167.33;10 / 33;1111;2021-10-20 19:32:23:868
8.8031;-9.313;1.2041;-7.0916;-6.7086;0.9146;-2.2583;1.9995;-0.9593;-0.3244;-0.579;1.1261;41.0;-35.34;-21.24;-5.1;132.49;19.78;88.9;5.0;48.54;39.468742;-0.340012;18.3;NaN;5.3;6.0;155.98;10 / 33;1161;2021-10-20 19:32:23:918
14.684;-1.464;4.1021;-0.9337;-9.4044;2.624;-2.2583;1.9995;-0.9593;0.4428;-0.0808;-0.8374;41.0;-37.09;-17.29;-5.46;86.01;73.5;19.59;5.0;48.54;39.468742;-0.340012;18.3;NaN;5.3;6.0;155.98;10 / 33;1210;2021-10-20 19:32:23:967
7.532;-4.9091;-0.33;-5.3534;-8.2073;-0.3591;-6.5031;-5.638;-2.3075;0.4428;-0.0808;-0.8374;41.0;-38.34;-12.06;-6.41;7.69;56.83;93.84;5.0;48.54;39.468742;-0.340012;18.3;NaN;5.3;6.0;155.98;10 / 33;1260;2021-10-20 19:32:24:017
6.338;-5.0741;-2.8241;-5.454;-7.8769;-2.0973;1.5936;-0.7241;3.2704;0.8229;0.0964;-1.6658;41.0;-38.34;-12.06;-6.41;7.69;56.83;93.84;5.0;48.54;39.468742;-0.340012;18.3;NaN;5.3;6.0;155.98;10 / 33;1310;2021-10-20 19:32:24:067
8.303;-3.8201;0.995;-5.454;-7.8769;-2.0973;0.7782;-1.1076;0.5664;-0.8592;-0.3139;-0.6011;37.0;-38.16;-9.54;-7.26;7.69;56.83;93.84;5.0;48.54;39.468742;-0.340012;18.3;NaN;5.3;6.0;155.98;10 / 33;1360;2021-10-20 19:32:24:117
8.9591;-3.805;2.108;-2.9353;-9.2464;1.4317;0.7782;-1.1076;0.5664;-0.8592;-0.3139;-0.6011;37.0;-38.16;-9.54;-7.26;7.69;56.83;93.84;5.0;45.412;39.468742;-0.340012;18.3;NaN;5.3;6.0;155.98;10 / 33;1410;2021-10-20 19:32:24:167
8.9591;-3.805;2.108;-5.3534;-7.9535;2.059;-0.7653;-1.6033;-2.0079;-0.3917;0.1011;-0.5427;37.0;-37.8;-6.96;-10.2;44.9;70.55;64.0;0.0;45.412;39.468742;-0.340012;18.3;NaN;5.3;6.0;155.98;10 / 33;1460;2021-10-20 19:32:24:217
7.82;-5.4589;0.7301;-5.0853;-8.3845;0.0;0.5149;0.2889;-0.3849;0.1346;0.5332;-0.3986;37.0;-37.5;-4.61;-13.5;25.74;58.76;90.0;0.0;45.412;39.468742;-0.340012;18.3;NaN;5.3;6.0;155.98;10 / 33;1510;2021-10-20 19:32:24:267
9.414;-6.245;-1.304;-6.0573;-7.6231;-1.1636;-1.0042;1.2189;1.8355;0.1346;0.5332;-0.3986;37.0;-37.5;-4.61;-13.5;25.74;58.76;90.0;0.0;45.412;39.468742;-0.340012;18.3;NaN;5.3;6.0;155.98;10 / 33;1560;2021-10-20 19:32:24:317
9.6911;-7.7569;-0.179;-5.6647;-8.011;0.0096;-1.0042;1.2189;1.8355;-1.0219;0.3438;0.3343;37.0;-36.9;-3.41;-14.51;25.74;58.76;90.0;0.0;45.412;39.468742;-0.340012;18.3;NaN;5.3;6.0;155.98;10 / 33;1610;2021-10-20 19:32:24:367
12.279;-9.445;0.579;-5.6647;-8.011;0.0096;-3.3;2.9378;0.3261;-1.0219;0.3438;0.3343;37.0;-36.49;-1.09;-14.94;27.61;54.74;89.9;5.0;45.412;39.468727;-0.339998;18.2;NaN;4.21;5.6;150.71;10 / 34;1661;2021-10-20 19:32:24:418
14.96;-1.957;3.044;-5.138;-8.3031;0.9194;-5.0127;-1.2778;-1.942;-1.0347;0.3319;0.3128;21.0;-36.49;-1.09;-14.94;27.61;54.74;89.9;5.0;45.412;39.468727;-0.339998;18.2;NaN;4.21;5.6;150.71;10 / 34;1711;2021-10-20 19:32:24:468
14.96;-1.957;3.044;-2.8874;-8.9399;2.8156;-5.0127;-1.2778;-1.942;-0.5523;0.7506;-0.6498;21.0;-36.24;1.69;-14.81;36.21;57.85;79.86;5.0;44.865;39.468727;-0.339998;18.2;NaN;4.21;5.6;150.71;10 / 34;1761;2021-10-20 19:32:24:518
9.024;-5.9449;2.3261;-7.2784;-6.5074;0.905;-3.3673;-1.349;-3.3198;-0.5523;0.7506;-0.6498;21.0;-36.24;1.69;-14.81;36.21;57.85;79.86;5.0;44.865;39.468727;-0.339998;18.2;NaN;4.21;5.6;150.71;10 / 34;1810;2021-10-20 19:32:24:567
7.341;-7.0661;0.363;-7.2784;-6.5074;0.905;1.2196;2.321;0.4824;0.0884;0.6845;-0.5515;21.0;-37.44;0.49;-13.61;38.48;41.58;82.91;5.0;44.865;39.468727;-0.339998;18.2;NaN;4.21;5.6;150.71;10 / 34;1861;2021-10-20 19:32:24:618
8.3891;-5.304;0.797;-5.2912;-8.2313;0.6273;1.2196;2.321;0.4824;0.267;-0.0058;0.6072;21.0;-38.64;-4.39;-10.26;26.33;57.08;83.24;5.0;44.865;39.468727;-0.339998;18.2;NaN;4.21;5.6;150.71;10 / 34;1910;2021-10-20 19:32:24:667
6.386;-6.223;1.275;-6.11;-7.5944;1.0822;0.5349;0.3285;0.0131;0.267;-0.0058;0.6072;21.0;-38.64;-4.39;-10.26;26.33;57.08;83.24;5.0;44.865;39.468727;-0.339998;18.2;NaN;4.21;5.6;150.71;10 / 34;1961;2021-10-20 19:32:24:718
4.7921;-7.161;1.5101;-7.5274;-6.0717;1.6233;2.6239;1.4146;-0.5384;0.5397;-0.4635;0.7072;21.0;-38.34;-8.94;-7.61;26.33;57.08;83.24;5.0;44.865;39.468727;-0.339998;18.2;NaN;4.21;5.6;150.71;10 / 34;2010;2021-10-20 19:32:24:767
4.7921;-7.161;1.5101;-8.0302;-5.454;1.4078;2.6239;1.4146;-0.5384;0.5397;-0.4635;0.7072;27.0;-37.69;-12.19;-6.24;50.55;33.78;80.06;5.0;49.715;39.468727;-0.339998;18.2;NaN;4.21;5.6;150.71;10 / 34;2061;2021-10-20 19:32:24:818
5.2151;-7.7171;0.8351;-7.8769;-5.8323;0.34;2.4646;1.6804;0.1854;0.9668;-0.5295;1.2161;27.0;-37.69;-12.19;-6.24;50.55;33.78;80.06;5.0;49.715;39.468727;-0.339998;18.2;NaN;4.21;5.6;150.71;10 / 34;2111;2021-10-20 19:32:24:868
6.9821;-8.6981;0.138;-7.8769;-5.8323;0.34;0.2427;2.13;0.896;0.5943;-0.5852;1.2233;27.0;-36.19;-14.21;-4.26;50.55;33.78;80.06;5.0;49.715;39.468727;-0.339998;18.2;NaN;4.21;5.6;150.71;10 / 34;2161;2021-10-20 19:32:24:918
5.864;-10.211;1.1051;-8.0302;-5.6216;0.2825;0.9892;3.2379;-0.2033;0.5943;-0.5852;1.2233;27.0;-36.19;-14.21;-4.26;50.55;33.78;80.06;5.0;49.715;39.468727;-0.339998;18.2;NaN;4.21;5.6;150.71;10 / 34;2211;2021-10-20 19:32:24:968
8.183;-6.197;3.942;-6.9911;-6.0908;3.1843;0.9892;3.2379;-0.2033;0.2934;-0.5871;0.8652;27.0;-35.76;-13.56;-4.14;30.12;34.98;87.99;5.0;49.715;39.468727;-0.339998;18.2;NaN;4.21;5.6;150.71;10 / 34;2261;2021-10-20 19:32:25:018
10.266;-4.3129;-0.067;-3.4955;-9.0261;1.5802;-3.5709;-2.3196;-2.5042;0.8302;-0.2086;-0.1646;27.0;-35.94;-9.96;-5.46;38.49;66.97;65.67;5.0;49.715;39.468727;-0.339998;18.2;NaN;4.21;5.6;150.71;10 / 34;2310;2021-10-20 19:32:25:067
10.266;-4.3129;-0.067;-4.8315;-8.2073;-2.3463;-3.5709;-2.3196;-2.5042;0.8302;-0.2086;-0.1646;37.0;-35.94;-9.96;-5.46;38.49;66.97;65.67;5.0;47.04;39.468727;-0.339998;18.2;NaN;4.21;5.6;150.71;10 / 34;2361;2021-10-20 19:32:25:118
6.9461;-4.612;-2.254;-5.2768;-8.0254;-1.9776;-0.9134;-2.2527;3.4529;0.0393;-0.3044;-1.2405;37.0;-36.24;-6.84;-5.81;337.92;56.8;115.9;5.0;47.04;39.468727;-0.339998;18.2;NaN;4.21;5.6;150.71;10 / 34;2410;2021-10-20 19:32:25:167
6.6041;-4.1291;-0.9041;-5.2768;-8.0254;-1.9776;0.9673;-2.0829;1.578;0.0393;-0.3044;-1.2405;37.0;-35.94;-5.46;-6.41;337.92;56.8;115.9;5.0;47.04;39.468727;-0.339998;18.2;NaN;4.21;5.6;150.71;10 / 34;2461;2021-10-20 19:32:25:218
7.0631;-4.875;0.579;-5.3008;-8.2504;0.1724;0.9673;-2.0829;1.578;-1.5227;-0.2951;-0.7601;37.0;-35.94;-5.46;-6.41;337.92;56.8;115.9;0.0;47.04;39.468727;-0.339998;18.2;NaN;4.21;5.6;150.71;10 / 34;2511;2021-10-20 19:32:25:268
8.243;-5.397;1.347;-5.3247;-8.1307;1.3168;0.6817;-0.6208;-1.1366;-0.2872;0.0989;-0.2769;37.0;-34.39;-3.66;-9.41;21.1;57.27;88.14;0.0;47.04;39.468727;-0.339998;18.2;NaN;4.21;5.6;150.71;10 / 34;2560;2021-10-20 19:32:25:317
10.2281;-5.909;-0.126;-4.9033;-8.4946;-0.1006;-1.0347;-0.3568;-0.789;-0.2872;0.0989;-0.2769;37.0;-34.39;-3.66;-9.41;21.1;57.27;88.14;0.0;47.04;39.468727;-0.339998;18.2;NaN;4.21;5.6;150.71;10 / 34;2610;2021-10-20 19:32:25:367
10.2281;-5.909;-0.126;-4.9033;-8.4946;-0.1006;-2.3724;1.042;0.4545;-0.1061;0.4381;-0.2897;37.0;-33.49;-1.44;-12.11;21.81;60.0;91.17;0.0;47.04;39.468723;-0.339993;18.4;NaN;1.7;5.3;186.11;10 / 34;2660;2021-10-20 19:32:25:417
10.929;-7.2041;-0.287;-5.3917;-8.1882;-0.2155;-2.3724;1.042;0.4545;-0.9973;0.5757;-0.243;13.0;-32.46;0.19;-13.5;25.08;56.61;92.29;5.0;50.677;39.468723;-0.339993;18.4;NaN;1.7;5.3;186.11;10 / 34;2711;2021-10-20 19:32:25:468
13.088;-8.559;0.3131;-5.3678;-8.2073;0.1867;-4.9218;3.0004;0.6811;-0.9973;0.5757;-0.243;13.0;-32.46;0.19;-13.5;25.08;56.61;92.29;5.0;50.677;39.468723;-0.339993;18.4;NaN;1.7;5.3;186.11;10 / 34;2761;2021-10-20 19:32:25:518
14.409;-3.039;2.7761;-1.992;-9.4332;1.81;-5.6724;-0.7571;-1.7378;-1.0882;0.6942;-0.3112;13.0;-31.8;2.89;-13.74;28.35;56.8;88.01;5.0;50.677;39.468723;-0.339993;18.4;NaN;1.7;5.3;186.11;10 / 34;2810;2021-10-20 19:32:25:567
9.045;-6.0701;1.577;-6.1962;-7.5274;1.0582;-0.6091;1.0687;-1.2499;-1.0882;0.6942;-0.3112;13.0;-31.8;2.89;-13.74;28.35;56.8;88.01;5.0;50.677;39.468723;-0.339993;18.4;NaN;1.7;5.3;186.11;10 / 34;2860;2021-10-20 19:32:25:617
9.045;-6.0701;1.577;-6.1962;-7.5274;1.0582;-0.6091;1.0687;-1.2499;-0.5774;0.8975;-0.6282;13.0;-32.34;2.94;-13.31;36.66;50.14;80.31;5.0;50.677;39.468723;-0.339993;18.4;NaN;1.7;5.3;186.11;10 / 34;2910;2021-10-20 19:32:25:667
9.0161;-5.876;1.074;-5.3295;-8.1738;0.9625;-0.1624;1.4512;-0.0265;-0.0874;0.5323;-0.1863;13.0;-33.19;0.11;-12.84;36.66;50.14;80.31;5.0;50.677;39.468723;-0.339993;18.4;NaN;1.7;5.3;186.11;10 / 34;2960;2021-10-20 19:32:25:717
6.9431;-6.1609;1.443;-6.4356;-7.2449;1.494;1.0334;1.3221;-0.5299;-0.0874;0.5323;-0.1863;13.0;-33.19;0.11;-12.84;36.66;50.14;80.31;5.0;53.747;39.468723;-0.339993;18.4;NaN;1.7;5.3;186.11;10 / 34;3010;2021-10-20 19:32:25:767
4.8011;-6.946;1.802;-7.8913;-5.454;2.0446;1.0334;1.3221;-0.5299;0.4392;-0.1144;0.7477;20.0;-34.8;-5.21;-11.4;42.99;47.64;76.93;5.0;53.747;39.468723;-0.339993;18.4;NaN;1.7;5.3;186.11;10 / 34;3061;2021-10-20 19:32:25:818
4.8011;-6.946;1.802;-7.8913;-5.454;2.0446;3.4196;1.6515;-0.8983;0.4392;-0.1144;0.7477;20.0;-35.29;-9.19;-10.5;42.99;47.64;76.93;5.0;53.747;39.468723;-0.339993;18.4;NaN;1.7;5.3;186.11;10 / 34;3111;2021-10-20 19:32:25:868
4.059;-7.24;1.5551;-8.4084;-4.7166;1.8052;3.1263;1.5381;-0.3131;1.0762;-0.4117;1.3408;20.0;-34.8;-13.86;-9.66;79.51;28.74;77.88;5.0;53.747;39.468723;-0.339993;18.4;NaN;1.7;5.3;186.11;10 / 34;3160;2021-10-20 19:32:25:917
5.579;-8.442;0.464;-8.1738;-5.4013;0.4501;3.1263;1.5381;-0.3131;0.8821;-0.4532;1.6086;20.0;-34.8;-13.86;-9.66;79.51;28.74;77.88;5.0;53.747;39.468723;-0.339993;18.4;NaN;1.7;5.3;186.11;10 / 34;3210;2021-10-20 19:32:25:967
6.56;-9.919;-0.4639;-8.1738;-5.4013;-0.3831;0.3643;2.0326;1.3853;0.8821;-0.4532;1.6086;20.0;-34.8;-15.66;-8.76;79.51;28.74;77.88;5.0;53.747;39.468723;-0.339993;18.4;NaN;1.7;5.3;186.11;10 / 34;3260;2021-10-20 19:32:26:017
6.56;-9.919;-0.4639;-8.1738;-5.4013;-0.3831;-0.0815;0.6938;-1.4953;0.1317;-0.6637;0.9684;20.0;-35.29;-14.04;-9.0;43.28;33.43;92.68;5.0;53.747;39.468723;-0.339993;18.4;NaN;1.7;5.3;186.11;10 / 34;3310;2021-10-20 19:32:26:067
10.3781;-5.191;4.167;-4.1324;-8.2552;3.3088;-5.0034;-2.7195;-2.9311;0.657;-0.2765;-0.2911;39.0;-35.29;-14.04;-9.0;43.28;33.43;92.68;5.0;46.135;39.468723;-0.339993;18.4;NaN;1.7;5.3;186.11;10 / 34;3360;2021-10-20 19:32:26:117
9.0041;-5.6081;0.521;-5.1715;-8.3175;0.4788;-5.0034;-2.7195;-2.9311;0.657;-0.2765;-0.2911;39.0;-36.66;-10.09;-10.56;29.79;58.02;84.71;5.0;46.135;39.468723;-0.339993;18.4;NaN;1.7;5.3;186.11;10 / 34;3410;2021-10-20 19:32:26:167
7.058;-4.7921;-0.2891;-4.4915;-8.7149;-0.2634;0.1922;-1.2724;1.671;0.6341;-0.1045;-1.0092;39.0;-37.2;-7.09;-11.04;16.28;62.69;93.36;5.0;46.135;39.468723;-0.339993;18.4;NaN;1.7;5.3;186.11;10 / 34;3461;2021-10-20 19:32:26:218
7.899;-3.54;-0.7939;-4.4915;-8.7149;-0.2634;0.1922;-1.2724;1.671;0.6341;-0.1045;-1.0092;39.0;-37.2;-7.09;-11.04;16.28;62.69;93.36;0.0;46.135;39.468723;-0.339993;18.4;NaN;1.7;5.3;186.11;10 / 34;3510;2021-10-20 19:32:26:267
7.781;-4.468;0.0041;-4.367;-8.7532;-0.7135;-0.3577;-2.649;1.9477;-0.8167;-0.1895;-0.9325;39.0;-36.96;-5.21;-10.86;16.28;62.69;93.36;0.0;46.135;39.468723;-0.339993;18.4;NaN;1.7;5.3;186.11;10 / 34;3560;2021-10-20 19:32:26:317
9.33;-4.9061;-0.2269;-4.7405;-8.5808;0.1963;0.03;-1.4241;0.7116;-1.0139;-0.0142;-0.7052;39.0;-36.96;-5.21;-10.86;16.28;62.69;93.36;0.0;46.135;39.468723;-0.339993;18.4;NaN;1.7;5.3;186.11;10 / 34;3611;2021-10-20 19:32:26:368
9.33;-4.9061;-0.2269;-4.6926;-8.6096;-0.2681;-1.2851;-0.6909;0.6133;-1.0139;-0.0142;-0.7052;39.0;-37.2;-3.41;-11.64;23.93;61.06;87.63;0.0;49.562;39.46873;-0.340002;18.4;NaN;2.51;4.2;174.59;10 / 34;3661;2021-10-20 19:32:26:418
10.484;-7.003;-0.1669;-5.7078;-7.9727;0.0;-1.2851;-0.6909;0.6133;-0.6677;0.1173;-0.4844;30.0;-36.66;-1.86;-12.11;22.53;54.4;90.0;5.0;49.562;39.46873;-0.340002;18.4;NaN;2.51;4.2;174.59;10 / 34;3711;2021-10-20 19:32:26:468
11.604;-6.2921;0.813;-5.7078;-7.9727;0.0;-2.316;2.2106;0.1952;-0.3927;0.166;-0.1636;30.0;-36.66;-1.86;-12.11;22.53;54.4;90.0;5.0;49.562;39.46873;-0.340002;18.4;NaN;2.51;4.2;174.59;10 / 34;3760;2021-10-20 19:32:26:517
11.5511;-8.133;1.031;-5.2768;-8.2504;0.5794;-3.9199;2.5582;-0.7018;-0.3927;0.166;-0.1636;30.0;-36.79;-0.49;-12.24;28.16;57.24;83.73;5.0;49.562;39.46873;-0.340002;18.4;NaN;2.51;4.2;174.59;10 / 34;3811;2021-10-20 19:32:26:568
13.4591;-3.341;1.395;-3.1939;-9.1985;1.1588;-3.9199;2.5582;-0.7018;-0.1189;0.2123;-0.0224;30.0;-36.66;0.24;-12.0;39.7;69.73;70.06;5.0;49.562;39.46873;-0.340002;18.4;NaN;2.51;4.2;174.59;10 / 34;3861;2021-10-20 19:32:26:618
9.282;-6.965;0.318;-4.798;-8.5425;0.4549;-5.1179;-1.8159;-1.108;-0.1464;0.3616;-0.48;30.0;-36.66;0.24;-12.0;39.7;69.73;70.06;5.0;49.562;39.46873;-0.340002;18.4;NaN;2.51;4.2;174.59;10 / 34;3911;2021-10-20 19:32:26:668
9.282;-6.965;0.318;-4.798;-8.5425;0.4549;-0.8021;2.041;0.1056;-0.1464;0.3616;-0.48;30.0;-36.9;-1.26;-9.84;39.7;69.73;70.06;5.0;49.562;39.46873;-0.340002;18.4;NaN;2.51;4.2;174.59;10 / 34;3961;2021-10-20 19:32:26:718
9.155;-5.7349;1.601;-5.1523;-8.2217;1.4317;-0.6103;0.9471;-1.0659;0.1787;0.1049;-0.2211;30.0;-36.9;-1.26;-9.84;39.7;69.73;70.06;5.0;48.847;39.46873;-0.340002;18.4;NaN;2.51;4.2;174.59;10 / 34;4011;2021-10-20 19:32:26:768
7.07;-6.024;2.297;-6.1723;-7.2496;2.3463;-0.6103;0.9471;-1.0659;0.1787;0.1049;-0.2211;16.0;-38.4;-4.91;-6.3;30.94;56.96;74.47;5.0;48.847;39.46873;-0.340002;18.4;NaN;2.51;4.2;174.59;10 / 34;4061;2021-10-20 19:32:26:818
5.6561;-6.312;1.448;-7.2018;-6.4548;1.6472;2.0384;1.1615;-0.9539;1.3036;-0.3895;0.7187;16.0;-38.64;-10.14;-3.9;36.7;41.14;77.12;5.0;48.847;39.46873;-0.340002;18.4;NaN;2.51;4.2;174.59;10 / 34;4110;2021-10-20 19:32:26:867
4.373;-6.697;1.407;-7.2018;-6.4548;1.6472;3.1894;1.0654;-0.276;1.3654;-0.4558;1.0919;16.0;-38.64;-10.14;-3.9;36.7;41.14;77.12;5.0;48.847;39.46873;-0.340002;18.4;NaN;2.51;4.2;174.59;10 / 34;4160;2021-10-20 19:32:26:917
4.227;-8.0591;1.361;-8.3222;-4.8937;1.7286;3.5908;1.4866;-0.3018;1.3654;-0.4558;1.0919;16.0;-37.09;-15.49;-1.8;62.8;29.93;78.27;5.0;48.847;39.46873;-0.340002;18.4;NaN;2.51;4.2;174.59;10 / 34;4211;2021-10-20 19:32:26:968
4.227;-8.0591;1.361;-8.576;-4.6591;0.9337;3.5908;1.4866;-0.3018;0.7943;-0.4836;1.4945;16.0;-35.7;-18.06;0.24;62.8;29.93;78.27;5.0;48.847;39.46873;-0.340002;18.4;NaN;2.51;4.2;174.59;10 / 34;4261;2021-10-20 19:32:27:018
6.429;-8.1911;0.5051;-7.3502;-6.4739;0.4884;0.475;1.329;0.7176;0.4008;-0.5728;1.1969;16.0;-35.7;-18.06;0.24;62.8;29.93;78.27;5.0;45.748;39.46873;-0.340002;18.4;NaN;2.51;4.2;174.59;10 / 34;4311;2021-10-20 19:32:27:068
7.389;-8.416;1.113;-6.8953;-6.8091;1.5179;-0.8467;1.1793;0.0212;0.4008;-0.5728;1.1969;41.0;-35.59;-16.99;0.84;7.21;41.31;86.2;5.0;45.748;39.46873;-0.340002;18.4;NaN;2.51;4.2;174.59;10 / 34;4360;2021-10-20 19:32:27:117
9.7631;-5.864;2.558;-4.3527;-8.5569;2.0016;-3.2718;-1.4236;-1.4648;0.3571;-0.5305;0.2145;41.0;-35.59;-16.99;0.84;7.21;41.31;86.2;5.0;45.748;39.46873;-0.340002;18.4;NaN;2.51;4.2;174.59;10 / 34;4410;2021-10-20 19:32:27:167
9.897;-5.237;0.734;-4.3527;-8.5569;2.0016;-3.2718;-1.4236;-1.4648;0.3571;-0.5305;0.2145;41.0;-36.66;-13.86;0.49;7.21;41.31;86.2;5.0;45.748;39.46873;-0.340002;18.4;NaN;2.51;4.2;174.59;10 / 34;4460;2021-10-20 19:32:27:217
8.045;-4.4899;0.114;-4.6591;-8.6287;0.0;-2.2598;-1.8822;1.2222;0.6175;-0.3495;-0.8148;41.0;-38.1;-10.14;-0.24;0.0;61.63;90.0;5.0;45.748;39.46873;-0.340002;18.4;NaN;2.51;4.2;174.59;10 / 34;4510;2021-10-20 19:32:27:267
8.045;-4.4899;0.114;-4.8219;-8.5377;0.2011;-2.2598;-1.8822;1.2222;0.3003;-0.4033;-1.123;41.0;-38.1;-10.14;-0.24;0.0;61.63;90.0;0.0;45.748;39.46873;-0.340002;18.4;NaN;2.51;4.2;174.59;10 / 34;4560;2021-10-20 19:32:27:317
7.4921;-3.578;-0.519;-4.4341;-8.6862;-1.0582;0.0564;-2.2319;1.2217;0.3003;-0.4033;-1.123;41.0;-38.16;-7.01;-1.26;4.99;60.52;87.61;0.0;47.331;39.46873;-0.340002;18.4;NaN;2.51;4.2;174.59;10 / 34;4610;2021-10-20 19:32:27:367
7.542;-4.476;-0.136;-4.6926;-8.6048;0.2251;0.7684;-1.6388;1.4787;-0.5972;-0.3586;-0.7864;41.0;-37.56;-4.39;-2.81;8.76;61.37;87.25;0.0;47.331;39.469658;-0.339503;18.3;NaN;1.8;3.5;200.34;10 / 34;4661;2021-10-20 19:32:27:418
9.2891;-4.861;-0.0431;-4.5346;-8.6957;-0.2298;-1.118;-0.5758;0.4882;-0.6516;-0.072;-0.5215;39.0;-37.56;-4.39;-2.81;8.76;61.37;87.25;0.0;47.331;39.469658;-0.339503;18.3;NaN;1.8;3.5;200.34;10 / 34;4711;2021-10-20 19:32:27:468
10.302;-6.709;-0.0881;-4.5346;-8.6957;-0.2298;-1.118;-0.5758;0.4882;-0.6516;-0.072;-0.5215;39.0;-37.86;-2.51;-4.31;8.76;61.37;87.25;0.0;47.331;39.469658;-0.339503;18.3;NaN;1.8;3.5;200.34;10 / 34;4761;2021-10-20 19:32:27:518
12.207;-7.662;0.4181;-5.703;-7.9583;0.5794;-1.8769;2.2695;-0.1471;-0.5031;0.1503;-0.1783;39.0;-37.86;-2.51;-4.31;8.76;61.37;87.25;0.0;47.331;39.469658;-0.339503;18.3;NaN;1.8;3.5;200.34;10 / 34;4811;2021-10-20 19:32:27:568
12.59;-8.068;1.077;-5.7365;-7.9583;-0.0335;-4.5066;3.4048;0.4257;-0.4832;0.2284;0.0949;39.0;-38.34;-0.79;-5.1;16.54;54.23;84.2;0.0;47.331;39.469658;-0.339503;18.3;NaN;1.8;3.5;200.34;10 / 34;4861;2021-10-20 19:32:27:618
12.59;-8.068;1.077;-1.9106;-9.481;1.6281;-4.5066;3.4048;0.4257;-0.4832;0.2284;0.0949;39.0;-37.74;1.69;-4.8;8.49;54.21;90.33;0.0;47.331;39.469658;-0.339503;18.3;NaN;1.8;3.5;200.34;10 / 34;4911;2021-10-20 19:32:27:668
13.7891;-2.391;2.616;-5.1763;-8.2696;1.0151;-5.8213;-2.3664;-2.1889;0.0704;0.267;-0.4632;39.0;-37.74;1.69;-4.8;8.49;54.21;90.33;0.0;52.367;39.469658;-0.339503;18.3;NaN;1.8;3.5;200.34;10 / 34;4961;2021-10-20 19:32:27:718
7.6181;-7.14;0.806;-5.1763;-8.2696;1.0151;0.8844;2.2664;-0.326;0.0704;0.267;-0.4632;39.0;-36.9;1.91;-3.84;19.59;57.47;78.9;0.0;52.367;39.469658;-0.339503;18.3;NaN;1.8;3.5;200.34;10 / 34;5011;2021-10-20 19:32:27:768
7.884;-6.252;0.495;-7.0533;-6.8091;0.249;0.8844;2.2664;-0.326;0.5697;0.1349;-0.3124;15.0;-36.19;-1.61;-2.76;10.31;43.97;87.98;0.0;52.367;39.469658;-0.339503;18.3;NaN;1.8;3.5;200.34;10 / 34;5061;2021-10-20 19:32:27:818
7.398;-5.909;1.326;-5.6599;-7.9296;1.1253;0.671;1.4849;0.184;0.1994;-0.0282;0.6375;15.0;-36.19;-1.61;-2.76;10.31;43.97;87.98;0.0;52.367;39.469658;-0.339503;18.3;NaN;1.8;3.5;200.34;10 / 34;5111;2021-10-20 19:32:27:868
5.565;-6.223;1.8191;-7.0294;-6.5697;1.9058;1.8096;0.9527;-0.8002;0.1994;-0.0282;0.6375;15.0;-35.7;-6.66;-1.56;20.43;53.96;78.76;5.0;52.367;39.469658;-0.339503;18.3;NaN;1.8;3.5;200.34;10 / 34;5161;2021-10-20 19:32:27:918
5.565;-6.223;1.8191;-7.6375;-5.8131;2.0159;1.8096;0.9527;-0.8002;0.3105;-0.0957;0.7998;15.0;-35.7;-6.66;-1.56;20.43;53.96;78.76;5.0;52.367;39.469658;-0.339503;18.3;NaN;1.8;3.5;200.34;10 / 34;5211;2021-10-20 19:32:27:968
4.488;-6.7999;1.584;-8.4228;-4.798;1.4748;2.9946;0.8083;-0.83;0.5881;0.078;1.1455;15.0;-35.16;-10.91;-0.71;41.86;36.35;75.21;5.0;49.046;39.469658;-0.339503;18.3;NaN;1.8;3.5;200.34;10 / 34;5261;2021-10-20 19:32:28:018
4.547;-7.879;1.079;-8.4228;-4.798;1.4748;2.8348;1.5139;0.1133;0.5881;0.078;1.1455;15.0;-34.56;-14.16;-0.3;41.86;36.35;75.21;5.0;49.046;39.469658;-0.339503;18.3;NaN;1.8;3.5;200.34;10 / 34;5311;2021-10-20 19:32:28:068
7.3841;-9.107;0.983;-7.8099;-5.8419;1.0295;-0.4777;2.254;0.3048;0.2471;0.032;1.1803;45.0;-34.56;-14.16;-0.3;41.86;36.35;75.21;5.0;49.046;39.469658;-0.339503;18.3;NaN;1.8;3.5;200.34;10 / 34;5361;2021-10-20 19:32:28:118
6.9671;-9.593;2.2691;-7.7955;-5.6599;1.8387;-0.4777;2.254;0.3048;0.2471;0.032;1.1803;45.0;-34.09;-14.76;0.06;28.96;36.56;82.49;5.0;49.046;39.469658;-0.339503;18.3;NaN;1.8;3.5;200.34;10 / 34;5411;2021-10-20 19:32:28:168
11.343;-4.5379;4.4351;-3.4237;-8.5617;3.3423;-0.4088;2.3928;-1.0479;-0.0528;-0.1195;0.7367;45.0;-34.69;-12.06;-0.9;42.8;35.25;76.73;5.0;49.046;39.469658;-0.339503;18.3;NaN;1.8;3.5;200.34;10 / 34;5461;2021-10-20 19:32:28:218
11.343;-4.5379;4.4351;-3.4237;-8.5617;3.3423;-4.1303;-2.1642;-0.4857;0.0699;-0.078;0.4901;45.0;-34.69;-12.06;-0.9;42.8;35.25;76.73;5.0;49.046;39.469658;-0.339503;18.3;NaN;1.8;3.5;200.34;10 / 34;5510;2021-10-20 19:32:28:267
9.4211;-5.7251;0.26;-5.0901;-8.3797;0.2298;-0.2014;-1.2187;3.1083;0.0699;-0.078;0.4901;45.0;-35.64;-8.51;-2.51;10.1;58.7;87.41;5.0;48.763;39.469658;-0.339503;18.3;NaN;1.8;3.5;200.34;10 / 34;5560;2021-10-20 19:32:28:317
7.101;-4.6691;-1.869;-5.2577;-8.0062;-2.1069;-0.2014;-1.2187;3.1083;0.3718;-0.125;-0.8642;45.0;-35.64;-8.51;-2.51;10.1;58.7;87.41;0.0;48.763;39.469658;-0.339503;18.3;NaN;1.8;3.5;200.34;10 / 34;5610;2021-10-20 19:32:28:367
8.1521;-3.083;-1.558;-3.4141;-9.0309;-1.7238;-1.0154;-3.2611;2.6181;-1.4846;-0.2696;-0.9904;45.0;-36.0;-6.49;-2.51;336.78;54.72;111.84;0.0;48.763;39.469658;-0.339503;18.3;NaN;1.8;3.5;200.34;10 / 34;5661;2021-10-20 19:32:28:418
6.951;-4.751;-0.213;-5.5258;-8.0972;-0.2394;-1.0154;-3.2611;2.6181;-1.4846;-0.2696;-0.9904;51.0;-36.0;-5.21;-2.51;336.78;54.72;111.84;0.0;48.763;39.469658;-0.339503;18.3;NaN;1.8;3.5;200.34;10 / 34;5710;2021-10-20 19:32:28:467
8.6021;-4.8919;0.323;-4.8459;-8.5186;0.3112;0.9356;-1.0909;0.4215;-1.4488;-0.1209;-0.6262;51.0;-36.0;-5.21;-2.51;336.78;54.72;111.84;0.0;48.763;39.469658;-0.339503;18.3;NaN;1.8;3.5;200.34;10 / 34;5760;2021-10-20 19:32:28:517
8.6021;-4.8919;0.323;-4.8459;-8.5186;0.3112;-0.9765;-0.1867;-0.4095;-1.4488;-0.1209;-0.6262;51.0;-35.64;-4.14;-3.96;12.25;60.32;86.32;0.0;48.763;39.469658;-0.339503;18.3;NaN;1.8;3.5;200.34;10 / 34;5810;2021-10-20 19:32:28:567
9.974;-7.279;-0.0161;-5.7796;-7.9248;-0.0096;-0.9765;-0.1867;-0.4095;-0.1067;0.0792;-0.2413;51.0;-35.89;-3.24;-5.94;12.26;53.9;90.09;0.0;48.763;39.469658;-0.339503;18.3;NaN;1.8;3.5;200.34;10 / 34;5860;2021-10-20 19:32:28:617
12.7151;-7.7119;0.05;-5.0853;-8.3845;0.0287;-3.1089;1.992;-0.4424;-0.1023;0.2314;-0.0547;51.0;-35.89;-3.24;-5.94;12.26;53.9;90.09;0.0;54.99;39.469658;-0.339503;18.3;NaN;1.8;3.5;200.34;10 / 34;5910;2021-10-20 19:32:28:667
13.1381;-7.654;0.651;-4.9273;-8.4659;0.4118;-4.9838;3.823;-0.31;-0.1023;0.2314;-0.0547;51.0;-35.94;-1.69;-6.36;16.91;59.71;85.22;0.0;54.99;39.469658;-0.339503;18.3;NaN;1.8;3.5;200.34;10 / 34;5961;2021-10-20 19:32:28:718
13.313;-2.51;2.9291;-1.7717;-9.4188;2.0734;-4.9838;3.823;-0.31;-0.2883;0.3389;-0.1317;51.0;-35.94;-1.69;-6.36;16.91;59.71;85.22;0.0;54.99;39.469658;-0.339503;18.3;NaN;1.8;3.5;200.34;10 / 34;6011;2021-10-20 19:32:28:768
7.049;-7.374;0.971;-7.0581;-6.7469;0.9242;-5.0012;-2.7071;-2.8594;0.2801;0.3431;-0.594;12.0;-35.76;-0.71;-4.86;58.81;73.85;40.51;0.0;54.99;39.469658;-0.339503;18.3;NaN;1.8;3.5;200.34;10 / 34;6061;2021-10-20 19:32:28:818
7.2401;-6.0341;-0.023;-7.0581;-6.7469;0.9242;2.5433;2.6746;0.0335;0.2801;0.3431;-0.594;12.0;-35.4;-3.06;-4.14;58.81;73.85;40.51;0.0;54.99;39.469658;-0.339503;18.3;NaN;1.8;3.5;200.34;10 / 34;6110;2021-10-20 19:32:28:867
7.2401;-6.0341;-0.023;-6.2824;-7.5322;-0.0144;0.7049;0.6915;-0.0909;0.5213;0.1068;0.0985;12.0;-35.4;-3.06;-4.14;58.81;73.85;40.51;0.0;54.99;39.469658;-0.339503;18.3;NaN;1.8;3.5;200.34;10 / 34;6161;2021-10-20 19:32:28:918
7.2431;-5.711;1.244;-6.019;-7.6327;1.3072;0.7049;0.6915;-0.0909;0.228;-0.1203;0.8917;12.0;-35.29;-7.26;-3.0;25.49;51.1;77.75;5.0;51.088;39.469658;-0.339503;18.3;NaN;1.8;3.5;200.34;10 / 34;6210;2021-10-20 19:32:28:967
5.778;-6.065;1.701;-6.9575;-6.6319;1.9393;1.9225;0.4108;-0.9355;0.228;-0.1203;0.8917;12.0;-35.1;-10.44;-1.86;36.92;42.56;74.43;5.0;51.088;39.469658;-0.339503;18.3;NaN;1.8;3.5;200.34;10 / 34;6260;2021-10-20 19:32:29:017
4.643;-6.489;2.12;-7.7141;-5.5115;2.5139;3.044;0.7037;-1.3328;0.7127;-0.0076;0.6838;12.0;-35.1;-10.44;-1.86;36.92;42.56;74.43;5.0;51.088;39.469658;-0.339503;18.3;NaN;1.8;3.5;200.34;10 / 34;6311;2021-10-20 19:32:29:068
4.9331;-7.86;1.488;-8.2025;-5.1475;1.5514;2.8351;0.9857;-0.5545;0.7127;-0.0076;0.6838;45.0;-34.86;-13.31;-1.26;36.92;42.56;74.43;5.0;51.088;39.469658;-0.339503;18.3;NaN;1.8;3.5;200.34;10 / 34;6361;2021-10-20 19:32:29:118
7.3721;-8.88;0.921;-8.2025;-5.1475;1.5514;2.8351;0.9857;-0.5545;0.6365;0.0749;1.0754;45.0;-34.86;-13.31;-1.26;36.92;42.56;74.43;5.0;51.088;39.469658;-0.339503;18.3;NaN;1.8;3.5;200.34;10 / 34;6411;2021-10-20 19:32:29:168
7.3721;-8.88;0.921;-7.6567;-6.1196;0.2873;-0.3896;2.1114;0.4396;0.1009;-0.1264;0.9053;45.0;-35.34;-14.89;-0.84;55.3;31.66;79.29;5.0;51.088;39.469658;-0.339503;18.3;NaN;1.8;3.5;200.34;10 / 34;6460;2021-10-20 19:32:29:217
7.286;-9.701;1.089;-6.426;-7.082;2.1596;-0.6145;2.6125;0.2014;0.1009;-0.1264;0.9053;45.0;-35.64;-12.96;-1.74;41.32;46.25;71.42;5.0;51.088;39.469658;-0.339503;18.3;NaN;1.8;3.5;200.34;10 / 34;6510;2021-10-20 19:32:29:267
11.759;-4.296;4.382;-2.7054;-8.8873;3.1364;-0.6145;2.6125;0.2014;0.1029;-0.1402;0.1521;45.0;-35.64;-12.96;-1.74;41.32;46.25;71.42;5.0;48.411;39.469658;-0.339503;18.3;NaN;1.8;3.5;200.34;10 / 34;6560;2021-10-20 19:32:29:317
9.4331;-5.1821;0.311;-5.7317;-7.8961;-0.9816;-5.6549;-3.278;-3.0263;0.598;-0.0895;-0.9853;45.0;-36.66;-8.89;-3.54;41.32;46.25;71.42;5.0;48.411;39.469658;-0.339503;18.3;NaN;1.8;3.5;200.34;10 / 34;6610;2021-10-20 19:32:29:367
6.8381;-5.3561;-1.8;-5.7317;-7.8961;-0.9816;0.114;-0.4779;3.1697;0.598;-0.0895;-0.9853;45.0;-37.56;-6.41;-4.26;354.8;53.63;99.72;5.0;48.411;39.469627;-0.339463;18.0;NaN;1.98;3.0;193.48;12 / 34;6661;2021-10-20 19:32:29:418
7.472;-3.6259;-1.984;-5.138;-7.9296;-2.6384;0.114;-0.4779;3.1697;-0.6005;-0.1792;-1.101;58.0;-37.56;-6.41;-4.26;354.8;53.63;99.72;5.0;48.411;39.469627;-0.339463;18.0;NaN;1.98;3.0;193.48;12 / 34;6711;2021-10-20 19:32:29:468
7.472;-3.6259;-1.984;-4.616;-8.5856;-1.1013;0.2901;-2.2977;2.9697;-0.6005;-0.1792;-1.101;58.0;-37.14;-5.81;-4.86;354.8;53.63;99.72;5.0;48.411;39.469627;-0.339463;18.0;NaN;1.98;3.0;193.48;12 / 34;6761;2021-10-20 19:32:29:518
7.068;-4.94;0.521;-5.7317;-7.8913;1.0343;0.8164;-0.9127;-0.268;-1.8945;-0.2005;-0.2864;58.0;-37.14;-5.81;-4.86;354.8;53.63;99.72;0.0;48.411;39.469627;-0.339463;18.0;NaN;1.98;3.0;193.48;12 / 34;6811;2021-10-20 19:32:29:568
8.15;-5.397;0.3611;-5.2912;-8.2552;-0.2298;0.8164;-0.9127;-0.268;-0.597;0.1708;-0.3319;58.0;-37.14;-4.56;-6.66;27.99;53.57;79.77;0.0;48.342;39.469627;-0.339463;18.0;NaN;1.98;3.0;193.48;12 / 34;6860;2021-10-20 19:32:29:617
9.44;-7.2469;-0.313;-6.1675;-7.6183;0.2394;-0.7211;-0.0599;0.1615;-0.597;0.1708;-0.3319;58.0;-37.14;-3.11;-8.21;12.1;57.32;92.49;0.0;48.342;39.469627;-0.339463;18.0;NaN;1.98;3.0;193.48;12 / 34;6910;2021-10-20 19:32:29:667
11.3861;-8.097;0.287;-6.1675;-7.6183;0.2394;-2.1951;1.9295;-0.5776;-0.2104;0.3191;0.045;58.0;-37.14;-3.11;-8.21;12.1;57.32;92.49;0.0;48.342;39.469627;-0.339463;18.0;NaN;1.98;3.0;193.48;12 / 34;6960;2021-10-20 19:32:29:717
12.1901;-8.0351;0.342;-6.3255;-7.4939;-0.2442;-3.1881;4.3662;0.7337;-0.5441;0.3263;0.1946;58.0;-36.9;-1.56;-9.36;12.1;57.32;92.49;0.0;48.342;39.469627;-0.339463;18.0;NaN;1.98;3.0;193.48;12 / 34;7011;2021-10-20 19:32:29:768
12.1901;-8.0351;0.342;-1.8435;-9.4954;1.6137;-3.1881;4.3662;0.7337;-0.5441;0.3263;0.1946;16.0;-37.5;1.14;-8.94;55.42;75.53;48.8;0.0;48.342;39.469627;-0.339463;18.0;NaN;1.98;3.0;193.48;12 / 34;7060;2021-10-20 19:32:29:817
13.919;-2.582;2.4911;-5.1619;-8.3366;0.0;-6.679;-2.8197;-2.4352;-0.3274;0.5211;-0.6087;16.0;-37.5;1.14;-8.94;55.42;75.53;48.8;0.0;48.342;39.469627;-0.339463;18.0;NaN;1.98;3.0;193.48;12 / 34;7110;2021-10-20 19:32:29:867
7.8461;-7.03;-0.0739;-5.1619;-8.3366;0.0;0.4448;1.7947;0.3026;-0.3274;0.5211;-0.6087;16.0;-38.29;1.69;-7.56;13.48;58.23;90.0;0.0;48.342;39.469627;-0.339463;18.0;NaN;1.98;3.0;193.48;12 / 34;7161;2021-10-20 19:32:29:918
8.2121;-5.756;0.5051;-6.8426;-7.0246;0.067;0.4448;1.7947;0.3026;-0.2412;0.4557;-0.6318;16.0;-38.29;1.69;-7.56;13.48;58.23;90.0;0.0;50.747;39.469627;-0.339463;18.0;NaN;1.98;3.0;193.48;12 / 34;7211;2021-10-20 19:32:29:968
7.176;-5.6921;1.893;-5.9663;-7.5274;1.9728;-0.2412;0.1529;-0.9229;0.3015;-0.0989;0.3751;16.0;-38.89;-1.31;-5.51;13.48;58.23;90.0;5.0;50.747;39.469627;-0.339463;18.0;NaN;1.98;3.0;193.48;12 / 34;7261;2021-10-20 19:32:30:018
5.933;-6.371;1.737;-7.039;-6.5553;1.9154;1.9215;0.8424;-1.2889;0.3015;-0.0989;0.3751;16.0;-39.79;-5.64;-3.11;32.07;50.14;71.7;5.0;50.747;39.469627;-0.339463;18.0;NaN;1.98;3.0;193.48;12 / 34;7311;2021-10-20 19:32:30:068
5.9621;-6.5441;1.941;-7.039;-6.5553;1.9154;1.9215;0.8424;-1.2889;1.023;-0.3475;0.6486;31.0;-39.79;-5.64;-3.11;32.07;50.14;71.7;5.0;50.747;39.469627;-0.339463;18.0;NaN;1.98;3.0;193.48;12 / 34;7360;2021-10-20 19:32:30:117
5.9621;-6.5441;1.941;-7.082;-6.45;2.0973;2.126;0.807;-1.1344;1.1712;-0.2562;0.946;31.0;-40.39;-9.96;-1.86;32.07;50.14;71.7;5.0;50.747;39.469627;-0.339463;18.0;NaN;1.98;3.0;193.48;12 / 34;7410;2021-10-20 19:32:30:167
6.266;-8.0089;1.275;-7.6662;-5.9951;1.2115;1.3129;1.8815;-0.1726;1.1712;-0.2562;0.946;31.0;-40.2;-13.44;-0.96;27.71;37.68;81.02;5.0;50.747;39.469627;-0.339463;18.0;NaN;1.98;3.0;193.48;12 / 34;7460;2021-10-20 19:32:30:217
6.1751;-9.093;1.541;-8.0349;-5.4588;1.3599;1.3129;1.8815;-0.1726;0.5946;-0.2691;1.0161;31.0;-40.2;-13.44;-0.96;27.71;37.68;81.02;5.0;47.509;39.469627;-0.339463;18.0;NaN;1.98;3.0;193.48;12 / 34;7510;2021-10-20 19:32:30:267
6.362;-9.272;2.345;-7.9152;-5.4348;2.0016;0.6728;3.088;-0.4063;0.304;-0.2095;0.9763;31.0;-39.96;-15.11;-1.2;39.2;33.82;80.39;5.0;47.509;39.469627;-0.339463;18.0;NaN;1.98;3.0;193.48;12 / 34;7560;2021-10-20 19:32:30:317
9.687;-4.409;3.468;-3.8595;-8.4898;3.0311;0.0528;0.5768;-1.6661;0.304;-0.2095;0.9763;31.0;-39.96;-15.11;-1.2;39.2;33.82;80.39;5.0;47.509;39.469627;-0.339463;18.0;NaN;1.98;3.0;193.48;12 / 34;7611;2021-10-20 19:32:30:368
8.222;-5.9839;-0.198;-3.8595;-8.4898;3.0311;-2.6578;-2.0194;0.5274;0.6898;-0.0705;-0.1108;31.0;-40.8;-13.26;-2.34;52.9;59.97;51.86;5.0;47.509;39.469597;-0.339443;17.4;NaN;4.26;2.8;196.01;11 / 34;7661;2021-10-20 19:32:30:418
8.222;-5.9839;-0.198;-6.3063;-7.4172;-1.1779;-2.6578;-2.0194;0.5274;0.6898;-0.0705;-0.1108;62.0;-42.19;-10.26;-2.81;349.26;49.14;100.58;5.0;47.509;39.469597;-0.339443;17.4;NaN;4.26;2.8;196.01;11 / 34;7711;2021-10-20 19:32:30:468
7.415;-4.914;-1.61;-3.7924;-8.9974;-0.9385;-0.0372;-0.9564;3.2644;0.029;-0.2518;-0.9267;62.0;-42.19;-10.26;-2.81;349.26;49.14;100.58;5.0;47.509;39.469597;-0.339443;17.4;NaN;4.26;2.8;196.01;11 / 34;7760;2021-10-20 19:32:30:517
8.078;-3.377;-0.792;-3.7924;-8.9974;-0.9385;-0.8179;-2.8262;2.0394;-1.2785;-0.3623;-0.793;62.0;-42.3;-8.46;-2.64;349.26;49.14;100.58;5.0;47.509;39.469597;-0.339443;17.4;NaN;4.26;2.8;196.01;11 / 34;7810;2021-10-20 19:32:30:567
7.3361;-4.646;0.0671;-4.6591;-8.6239;-0.2825;0.4692;-1.2906;0.3343;-1.2785;-0.3623;-0.793;62.0;-41.59;-6.41;-3.06;0.76;61.58;93.47;0.0;47.451;39.469597;-0.339443;17.4;NaN;4.26;2.8;196.01;11 / 34;7860;2021-10-20 19:32:30:617
8.2361;-5.5811;0.143;-5.6264;-8.0302;0.2969;0.4692;-1.2906;0.3343;-0.9705;-0.1776;-0.6875;62.0;-41.59;-6.41;-3.06;0.76;61.58;93.47;0.0;47.451;39.469597;-0.339443;17.4;NaN;4.26;2.8;196.01;11 / 34;7910;2021-10-20 19:32:30:667
9.363;-6.264;0.236;-5.4492;-8.1546;0.2011;-0.7656;-0.1821;-0.0919;-0.7602;-0.1213;-0.6484;62.0;-41.59;-4.44;-4.74;12.76;54.95;86.98;0.0;47.451;39.469597;-0.339443;17.4;NaN;4.26;2.8;196.01;11 / 34;7961;2021-10-20 19:32:30:718
9.363;-6.264;0.236;-5.4492;-8.1546;0.2011;-1.2574;0.7234;-0.1915;-0.7602;-0.1213;-0.6484;62.0;-41.59;-4.44;-4.74;12.76;54.95;86.98;0.0;47.451;39.469597;-0.339443;17.4;NaN;4.26;2.8;196.01;11 / 34;8011;2021-10-20 19:32:30:768
11.345;-8.609;-0.1309;-5.9328;-7.8099;-0.0862;-4.4709;4.342;0.6597;-0.0686;0.1312;0.0733;33.0;-41.7;-2.16;-6.3;12.76;54.95;86.98;0.0;47.451;39.469597;-0.339443;17.4;NaN;4.26;2.8;196.01;11 / 34;8060;2021-10-20 19:32:30:817
13.179;-9.39;0.782;-5.6838;-7.9775;0.4693;-4.4709;4.342;0.6597;-0.0686;0.1312;0.0733;33.0;-41.1;1.14;-6.36;15.64;54.44;85.28;0.0;47.451;39.469597;-0.339443;17.4;NaN;4.26;2.8;196.01;11 / 34;8111;2021-10-20 19:32:30:868
14.972;-1.503;3.3791;-2.0207;-9.2799;2.4373;-5.2501;0.0976;-1.4531;-0.2335;0.2417;0.0483;33.0;-41.1;1.14;-6.36;15.64;54.44;85.28;0.0;52.28;39.469597;-0.339443;17.4;NaN;4.26;2.8;196.01;11 / 34;8160;2021-10-20 19:32:30:917
7.439;-6.9551;0.749;-2.0207;-9.2799;2.4373;-4.6137;-2.5764;-3.1216;0.2919;0.3062;-0.747;33.0;-40.86;3.41;-5.46;57.56;71.16;39.66;0.0;52.28;39.469597;-0.339443;17.4;NaN;4.26;2.8;196.01;11 / 34;8210;2021-10-20 19:32:30:967
6.101;-6.716;-0.584;-7.8386;-5.8897;0.2346;3.1635;2.507;0.9962;0.2919;0.3062;-0.747;33.0;-40.86;1.01;-4.61;57.56;71.16;39.66;5.0;52.28;39.469597;-0.339443;17.4;NaN;4.26;2.8;196.01;11 / 34;8260;2021-10-20 19:32:31:017
6.101;-6.716;-0.584;-6.1387;-7.6471;0.2298;3.1635;2.507;0.9962;0.3385;0.1629;-0.1871;33.0;-40.86;1.01;-4.61;57.56;71.16;39.66;5.0;52.28;39.469597;-0.339443;17.4;NaN;4.26;2.8;196.01;11 / 34;8310;2021-10-20 19:32:31:067
7.389;-5.39;1.067;-6.6463;-6.9911;1.7765;0.8996;0.1733;-0.3751;-0.0841;-0.0814;0.9919;33.0;-40.2;-3.71;-2.76;8.94;51.22;87.86;5.0;52.28;39.469597;-0.339443;17.4;NaN;4.26;2.8;196.01;11 / 34;8360;2021-10-20 19:32:31:117
5.804;-6.087;1.692;-6.6463;-6.9911;1.7765;2.1858;0.4214;-1.0546;-0.0841;-0.0814;0.9919;33.0;-40.2;-3.71;-2.76;8.94;51.22;87.86;5.0;52.28;39.469597;-0.339443;17.4;NaN;4.26;2.8;196.01;11 / 34;8410;2021-10-20 19:32:31:167
4.9541;-6.6199;2.111;-7.4508;-5.9568;2.2841;2.1858;0.4214;-1.0546;0.7946;-0.1185;0.6131;33.0;-39.84;-7.39;-1.74;8.94;51.22;87.86;5.0;51.524;39.469597;-0.339443;17.4;NaN;4.26;2.8;196.01;11 / 34;8461;2021-10-20 19:32:31:218
5.78;-7.6999;2.0651;-7.7285;-5.5593;2.3463;2.7437;0.7745;-1.2729;0.7946;-0.1185;0.6131;33.0;-38.94;-10.39;-1.8;46.44;34.54;73.11;5.0;51.524;39.469597;-0.339443;17.4;NaN;4.26;2.8;196.01;11 / 34;8511;2021-10-20 19:32:31:268
7.712;-8.741;0.5051;-7.3358;-6.4643;0.747;0.7848;1.5441;-0.2568;0.7949;0.0349;1.0432;33.0;-38.94;-10.39;-1.8;46.44;34.54;73.11;5.0;51.524;39.469597;-0.339443;17.4;NaN;4.26;2.8;196.01;11 / 34;8560;2021-10-20 19:32:31:317
7.712;-8.741;0.5051;-8.1594;-5.4061;0.565;-0.7957;3.4195;0.9217;0.1205;-0.0712;0.7546;33.0;-38.34;-12.19;-1.8;20.33;41.24;84.19;5.0;51.524;39.469597;-0.339443;17.4;NaN;4.26;2.8;196.01;11 / 34;8610;2021-10-20 19:32:31:367
6.326;-10.6661;1.74;-8.1594;-5.4061;0.565;-0.7957;3.4195;0.9217;0.1205;-0.0712;0.7546;33.0;-38.34;-12.19;-1.8;20.33;41.24;84.19;5.0;51.524;39.469585;-0.339447;17.4;NaN;5.36;2.5;199.75;11 / 34;8660;2021-10-20 19:32:31:417
11.2331;-3.6739;4.883;-2.8108;-8.6143;3.7445;-2.1544;-1.1985;-2.9489;0.0477;-0.0456;0.4342;67.0;-38.46;-11.16;-2.81;25.82;33.46;86.04;5.0;51.524;39.469585;-0.339447;17.4;NaN;5.36;2.5;199.75;11 / 34;8711;2021-10-20 19:32:31:468
8.949;-4.667;1.079;-4.5011;-8.6479;1.0391;-4.4456;-4.0203;-1.7156;0.8001;0.0351;-0.8717;67.0;-38.4;-7.69;-5.04;25.82;33.46;86.04;5.0;51.524;39.469585;-0.339447;17.4;NaN;5.36;2.5;199.75;11 / 34;8760;2021-10-20 19:32:31:517
5.481;-6.1061;-2.23;-7.0437;-6.3207;-2.5618;1.522;0.2347;3.2694;0.8001;0.0351;-0.8717;67.0;-38.4;-7.69;-5.04;25.82;33.46;86.04;5.0;48.324;39.469585;-0.339447;17.4;NaN;5.36;2.5;199.75;11 / 34;8810;2021-10-20 19:32:31:567
8.6021;-3.3289;-0.988;-3.5195;-9.098;-1.0391;1.522;0.2347;3.2694;-0.6692;-0.044;-1.0755;67.0;-38.4;-6.79;-6.36;338.85;40.14;109.99;5.0;48.324;39.469585;-0.339447;17.4;NaN;5.36;2.5;199.75;11 / 34;8861;2021-10-20 19:32:31:618
7.9631;-4.3459;0.308;-4.6974;-8.6;0.3256;-0.9647;-2.6978;2.2859;-1.8931;-0.0832;-0.3124;67.0;-38.16;-6.66;-6.84;353.01;68.03;106.45;0.0;48.324;39.469585;-0.339447;17.4;NaN;5.36;2.5;199.75;11 / 34;8911;2021-10-20 19:32:31:668
7.9631;-4.3459;0.308;-4.6974;-8.6;0.3256;-0.2034;-1.6334;0.2964;-1.8931;-0.0832;-0.3124;67.0;-38.16;-6.66;-6.84;353.01;68.03;106.45;0.0;48.324;39.469585;-0.339447;17.4;NaN;5.36;2.5;199.75;11 / 34;8961;2021-10-20 19:32:31:718
8.451;-4.7411;0.4811;-4.7932;-8.5425;0.4836;-0.2034;-1.6334;0.2964;-0.8392;0.2445;-0.8331;67.0;-37.99;-5.16;-8.21;21.58;60.58;84.24;0.0;48.324;39.469585;-0.339447;17.4;NaN;5.36;2.5;199.75;11 / 34;9011;2021-10-20 19:32:31:768
8.856;-6.941;-0.5959;-6.0382;-7.7093;-0.5124;-0.1951;-0.4091;0.4393;-0.8392;0.2445;-0.8331;50.0;-37.86;-4.69;-9.9;13.87;51.83;94.85;0.0;48.324;39.469585;-0.339447;17.4;NaN;5.36;2.5;199.75;11 / 34;9061;2021-10-20 19:32:31:818
11.702;-7.444;0.143;-5.2625;-8.2744;0.0958;-1.7859;1.9747;0.2743;-0.4661;0.2251;-0.0137;50.0;-37.86;-4.69;-9.9;13.87;51.83;94.85;0.0;52.646;39.469585;-0.339447;17.4;NaN;5.36;2.5;199.75;11 / 34;9111;2021-10-20 19:32:31:868
13.445;-8.394;0.7301;-5.1858;-8.3127;0.4453;-1.7859;1.9747;0.2743;-0.5529;0.2391;0.1305;50.0;-37.5;-2.76;-9.96;13.87;51.83;94.85;0.0;52.646;39.469585;-0.339447;17.4;NaN;5.36;2.5;199.75;11 / 34;9161;2021-10-20 19:32:31:918
14.582;-1.79;2.616;-1.1732;-9.5864;1.719;-5.3173;2.9007;-0.6461;-0.5529;0.2391;0.1305;50.0;-37.5;-2.76;-9.96;13.87;51.83;94.85;0.0;52.646;39.469585;-0.339447;17.4;NaN;5.36;2.5;199.75;11 / 34;9211;2021-10-20 19:32:31:968
14.582;-1.79;2.616;-1.1732;-9.5864;1.719;-6.3353;-3.5334;-2.4678;-0.2788;0.4487;-0.6567;50.0;-37.74;-0.41;-8.64;69.45;77.75;34.31;0.0;52.646;39.469585;-0.339447;17.4;NaN;5.36;2.5;199.75;11 / 34;9261;2021-10-20 19:32:32:018
8.399;-6.584;0.356;-6.0478;-7.7141;0.3256;1.2876;2.6488;0.3209;0.0117;0.37;-0.6291;50.0;-37.99;-1.39;-7.31;17.34;51.86;86.92;5.0;52.646;39.469585;-0.339447;17.4;NaN;5.36;2.5;199.75;11 / 34;9310;2021-10-20 19:32:32:067
7.1561;-6.946;0.672;-6.8091;-7.0246;0.656;1.2876;2.6488;0.3209;0.0117;0.37;-0.6291;32.0;-37.99;-1.39;-7.31;17.34;51.86;86.92;5.0;52.646;39.469585;-0.339447;17.4;NaN;5.36;2.5;199.75;11 / 34;9361;2021-10-20 19:32:32:118
7.542;-5.6921;2.051;-5.77;-7.6519;2.0782;0.78;1.0173;-1.1348;0.5877;-0.1473;0.6117;32.0;-37.56;-5.29;-5.76;17.34;51.86;86.92;5.0;52.646;39.469585;-0.339447;17.4;NaN;5.36;2.5;199.75;11 / 34;9410;2021-10-20 19:32:32:167
5.952;-6.197;1.661;-6.948;-6.6702;1.8531;0.78;1.0173;-1.1348;0.5877;-0.1473;0.6117;32.0;-37.26;-10.31;-3.71;39.46;42.85;75.07;5.0;49.104;39.469585;-0.339447;17.4;NaN;5.36;2.5;199.75;11 / 34;9460;2021-10-20 19:32:32:217
4.8971;-6.312;1.943;-7.5322;-5.8419;2.308;2.2155;0.7852;-0.9133;0.837;-0.2585;0.8786;32.0;-37.26;-10.31;-3.71;39.46;42.85;75.07;5.0;49.104;39.469585;-0.339447;17.4;NaN;5.36;2.5;199.75;11 / 34;9511;2021-10-20 19:32:32:268
4.8971;-6.312;1.943;-7.5322;-5.8419;2.308;3.0015;0.5711;-0.9304;1.0297;-0.12;0.9452;32.0;-36.24;-14.16;-2.04;54.44;36.56;72.96;5.0;49.104;39.469585;-0.339447;17.4;NaN;5.36;2.5;199.75;11 / 34;9560;2021-10-20 19:32:32:317
5.1311;-7.3961;1.2371;-7.9871;-5.5306;1.3264;1.6997;1.6743;0.4858;1.0297;-0.12;0.9452;32.0;-36.24;-14.16;-2.04;54.44;36.56;72.96;5.0;49.104;39.469585;-0.339447;17.4;NaN;5.36;2.5;199.75;11 / 34;9610;2021-10-20 19:32:32:367
6.848;-8.159;0.816;-7.4939;-6.2824;0.7374;1.6997;1.6743;0.4858;0.5385;-0.2146;1.084;32.0;-35.1;-16.61;-0.96;54.44;36.56;72.96;5.0;49.104;39.46953;-0.339393;17.4;NaN;6.37;2.3;203.95;11 / 34;9661;2021-10-20 19:32:32:418
6.599;-9.696;1.505;-8.0397;-5.4731;1.245;-0.0808;3.0934;0.285;0.0875;-0.3582;0.8227;69.0;-34.86;-16.39;-1.5;46.86;33.93;81.2;5.0;49.104;39.46953;-0.339393;17.4;NaN;6.37;2.3;203.95;11 / 34;9711;2021-10-20 19:32:32:468
10.1321;-4.9639;3.4541;-4.1276;-8.4228;2.8683;-0.0808;3.0934;0.285;0.0875;-0.3582;0.8227;69.0;-34.86;-16.39;-1.5;46.86;33.93;81.2;5.0;47.921;39.46953;-0.339393;17.4;NaN;6.37;2.3;203.95;11 / 34;9761;2021-10-20 19:32:32:518
9.3161;-5.368;1.61;-4.8459;-8.3989;1.4509;-3.4698;-2.136;-2.1713;0.5294;-0.1202;-0.2606;69.0;-35.64;-13.14;-3.3;46.86;33.93;81.2;5.0;47.921;39.46953;-0.339393;17.4;NaN;6.37;2.3;203.95;11 / 34;9811;2021-10-20 19:32:32:568
9.3161;-5.368;1.61;-4.8459;-8.3989;1.4509;-2.4459;-1.4834;-0.1122;0.5294;-0.1202;-0.2606;69.0;-36.36;-10.44;-5.16;33.14;58.94;73.33;5.0;47.921;39.46953;-0.339393;17.4;NaN;6.37;2.3;203.95;11 / 34;9860;2021-10-20 19:32:32:617
7.118;-5.076;-0.8659;-5.6647;-7.9487;-0.9577;0.0949;-1.7603;2.6238;0.4641;-0.081;-1.0072;69.0;-36.36;-10.44;-5.16;33.14;58.94;73.33;5.0;47.921;39.46953;-0.339393;17.4;NaN;6.37;2.3;203.95;11 / 34;9910;2021-10-20 19:32:32:667
7.8551;-3.537;-1.388;-3.9696;-8.8298;-1.5467;-0.2727;-2.4066;2.4285;-1.0068;-0.1884;-0.8437;69.0;-36.19;-8.81;-5.46;343.24;64.24;111.29;0.0;47.921;39.46953;-0.339393;17.4;NaN;6.37;2.3;203.95;11 / 34;9961;2021-10-20 19:32:32:718
7.817;-4.298;-0.0739;-4.7262;-8.5952;-0.0766;-0.2727;-2.4066;2.4285;-1.0068;-0.1884;-0.8437;69.0;-36.19;-8.81;-5.46;343.24;64.24;111.29;0.0;47.921;39.46953;-0.339393;17.4;NaN;6.37;2.3;203.95;11 / 34;10010;2021-10-20 19:32:32:767
8.6141;-5.086;0.5741;-4.9752;-8.4324;0.5602;0.0691;-1.1299;0.2128;-1.3295;-0.1312;-0.6105;69.0;-35.64;-7.44;-5.51;343.24;64.24;111.29;0.0;47.344;39.46953;-0.339393;17.4;NaN;6.37;2.3;203.95;11 / 34;10060;2021-10-20 19:32:32:817
10.3331;-6.781;-0.4399;-5.3726;-8.1977;-0.3448;-1.6024;0.4267;0.3114;-0.4367;0.1011;-0.4249;69.0;-35.94;-5.94;-6.66;22.12;59.3;83.58;0.0;47.344;39.46953;-0.339393;17.4;NaN;6.37;2.3;203.95;11 / 34;10110;2021-10-20 19:32:32:867
12.425;-7.504;0.09;-5.0661;-8.3989;0.0575;-2.953;2.1679;-0.1995;-0.4367;0.1011;-0.4249;69.0;-35.94;-5.94;-6.66;22.12;59.3;83.58;0.0;47.344;39.46953;-0.339393;17.4;NaN;6.37;2.3;203.95;11 / 34;10160;2021-10-20 19:32:32:917
12.425;-7.504;0.09;-5.0661;-8.3989;0.0575;-2.953;2.1679;-0.1995;-0.2846;0.1602;-0.0686;69.0;-36.49;-4.01;-7.2;14.48;58.9;89.35;0.0;47.344;39.46953;-0.339393;17.4;NaN;6.37;2.3;203.95;11 / 34;10210;2021-10-20 19:32:32:967
12.947;-7.925;0.363;-5.114;-8.3653;0.2298;-4.6914;2.6101;-0.2239;-0.3488;0.1827;-0.0762;69.0;-36.19;-2.29;-6.66;14.48;58.9;89.35;0.0;47.344;39.46953;-0.339393;17.4;NaN;6.37;2.3;203.95;11 / 34;10260;2021-10-20 19:32:33:017
13.196;-2.6111;2.063;-1.8771;-9.5098;1.4844;-4.6914;2.6101;-0.2239;-0.3488;0.1827;-0.0762;69.0;-36.19;-2.29;-6.66;14.48;58.9;89.35;0.0;47.344;39.46953;-0.339393;17.4;NaN;6.37;2.3;203.95;11 / 34;10310;2021-10-20 19:32:33:067
7.872;-6.805;0.849;-6.3925;-7.3933;0.7949;-3.2492;-1.4812;-2.095;0.0359;0.2812;-0.583;31.0;-36.0;-2.04;-5.51;49.26;75.88;51.66;5.0;52.878;39.46953;-0.339393;17.4;NaN;6.37;2.3;203.95;11 / 34;10360;2021-10-20 19:32:33:117
7.7051;-6.1271;0.0191;-6.1004;-7.6758;0.0144;1.7398;1.9426;0.3689;0.0359;0.2812;-0.583;31.0;-36.0;-2.04;-5.51;49.26;75.88;51.66;5.0;52.878;39.46953;-0.339393;17.4;NaN;6.37;2.3;203.95;11 / 34;10410;2021-10-20 19:32:33:167
7.551;-5.684;1.278;-5.8466;-7.7668;1.3024;0.5404;0.9294;-0.5024;0.2019;0.2478;-0.4884;31.0;-36.49;-4.61;-4.01;49.26;75.88;51.66;5.0;52.878;39.46953;-0.339393;17.4;NaN;6.37;2.3;203.95;11 / 34;10461;2021-10-20 19:32:33:218
7.551;-5.684;1.278;-5.8466;-7.7668;1.3024;0.5404;0.9294;-0.5024;0.5438;-0.1801;0.7237;31.0;-36.24;-9.06;-2.04;23.98;52.36;77.44;5.0;52.878;39.46953;-0.339393;17.4;NaN;6.37;2.3;203.95;11 / 34;10511;2021-10-20 19:32:33:268
5.7161;-5.979;1.9571;-6.9001;-6.5984;2.2505;2.9683;0.9088;-1.368;0.5438;-0.1801;0.7237;31.0;-36.24;-9.06;-2.04;23.98;52.36;77.44;5.0;52.878;39.46953;-0.339393;17.4;NaN;6.37;2.3;203.95;11 / 34;10560;2021-10-20 19:32:33:317
4.55;-6.328;1.9691;-7.7189;-5.5545;2.3942;2.9683;0.9088;-1.368;0.9705;-0.125;0.8606;31.0;-35.04;-13.01;-0.66;54.58;34.5;72.77;5.0;52.878;39.46953;-0.339393;17.4;NaN;6.37;2.3;203.95;11 / 34;10610;2021-10-20 19:32:33:367
4.4231;-7.755;1.5071;-8.4036;-4.7836;1.6233;3.5067;0.7138;-0.8429;0.8125;-0.0076;1.3646;31.0;-34.5;-15.41;-0.06;54.58;34.5;72.77;5.0;52.878;39.46953;-0.339393;17.4;NaN;6.37;2.3;203.95;11 / 34;10660;2021-10-20 19:32:33:417
7.0631;-8.638;1.694;-7.5082;-6.1339;1.47;2.4609;2.1391;-0.0134;0.8125;-0.0076;1.3646;75.0;-34.5;-15.41;-0.06;54.58;34.5;72.77;5.0;47.634;39.46953;-0.339393;17.4;NaN;6.37;2.3;203.95;11 / 34;10710;2021-10-20 19:32:33:467
7.535;-9.191;1.8311;-7.4939;-6.1483;1.4892;-0.7479;2.8919;0.1859;0.3147;-0.1609;1.1018;75.0;-34.69;-15.84;0.36;36.76;38.72;78.92;5.0;47.634;39.46953;-0.339393;17.4;NaN;6.37;2.3;203.95;11 / 34;10760;2021-10-20 19:32:33:517
7.535;-9.191;1.8311;-7.4939;-6.1483;1.4892;-0.7479;2.8919;0.1859;0.3147;-0.1609;1.1018;75.0;-34.69;-15.84;0.36;36.76;38.72;78.92;5.0;47.634;39.46953;-0.339393;17.4;NaN;6.37;2.3;203.95;11 / 34;10811;2021-10-20 19:32:33:568
10.4861;-4.701;3.966;-3.7924;-8.4563;3.1987;-2.5823;-1.3101;-2.1182;0.3191;-0.1558;0.253;75.0;-35.7;-13.99;-1.26;36.76;38.72;78.92;5.0;47.634;39.46953;-0.339393;17.4;NaN;6.37;2.3;203.95;11 / 34;10861;2021-10-20 19:32:33:618
9.2051;-5.936;1.077;-5.2864;-8.2025;0.9625;-2.3303;-0.8729;0.6136;0.6164;-0.1225;-0.7818;75.0;-37.14;-10.26;-3.3;21.34;56.77;79.68;5.0;47.634;39.46953;-0.339393;17.4;NaN;6.37;2.3;203.95;11 / 34;10911;2021-10-20 19:32:33:668
7.997;-4.8469;-1.098;-5.0422;-8.3366;-1.1349;-0.7265;-1.5146;2.8265;0.6164;-0.1225;-0.7818;75.0;-37.14;-10.26;-3.3;21.34;56.77;79.68;0.0;47.634;39.46953;-0.339393;17.4;NaN;6.37;2.3;203.95;11 / 34;10960;2021-10-20 19:32:33:717
8.82;-3.135;-1.5529;-3.2417;-9.1171;-1.6041;-0.7265;-1.5146;2.8265;-0.3572;-0.2276;-1.0898;75.0;-36.96;-7.14;-3.66;351.35;58.2;102.68;0.0;46.202;39.46953;-0.339393;17.4;NaN;6.37;2.3;203.95;11 / 34;11010;2021-10-20 19:32:33:767
7.796;-4.389;-0.911;-4.7884;-8.5042;-0.9816;-1.1418;-2.83;2.8866;-1.7981;-0.2458;-0.8203;74.0;-36.79;-5.29;-4.01;353.24;60.11;101.59;0.0;46.202;39.46953;-0.339393;17.4;NaN;6.37;2.3;203.95;11 / 34;11060;2021-10-20 19:32:33:817
8.868;-5.108;-0.548;-4.7884;-8.5042;-0.9816;0.1796;-1.2937;1.5212;-1.7981;-0.2458;-0.8203;74.0;-36.79;-5.29;-4.01;353.24;60.11;101.59;0.0;46.202;39.46953;-0.339393;17.4;NaN;6.37;2.3;203.95;11 / 34;11110;2021-10-20 19:32:33:867
8.868;-5.108;-0.548;-5.0326;-8.4084;-0.316;-0.868;0.1724;0.2758;-1.4046;-0.0412;-0.624;74.0;-36.49;-4.01;-4.86;5.38;59.05;93.59;0.0;46.202;39.46953;-0.339393;17.4;NaN;6.37;2.3;203.95;11 / 34;11160;2021-10-20 19:32:33:917
10.1561;-6.802;0.222;-5.5689;-8.0637;0.3256;-0.868;0.1724;0.2758;-0.2497;0.1081;-0.0491;74.0;-36.49;-4.01;-4.86;5.38;59.05;93.59;0.0;46.202;39.46953;-0.339393;17.4;NaN;6.37;2.3;203.95;11 / 34;11210;2021-10-20 19:32:33:967
12.207;-7.197;0.035;-5.5737;-8.0685;-0.2634;-2.6681;1.7421;-0.626;-0.2497;0.1081;-0.0491;74.0;-36.6;-2.76;-5.34;5.38;59.05;93.59;0.0;46.202;39.46953;-0.339393;17.4;NaN;6.37;2.3;203.95;11 / 34;11260;2021-10-20 19:32:34:017
12.5471;-8.542;0.105;-5.5737;-8.0685;-0.2634;-4.4391;4.6333;0.4508;-0.114;0.1493;0.1273;74.0;-37.09;-1.39;-5.04;6.17;55.33;92.71;0.0;46.202;39.46953;-0.339393;17.4;NaN;6.37;2.3;203.95;11 / 34;11310;2021-10-20 19:32:34:067
13.82;-2.51;1.4171;-1.9106;-9.6103;0.498;-5.6842;-2.4377;-0.7987;-0.114;0.1493;0.1273;24.0;-37.09;-1.39;-5.04;6.17;55.33;92.71;0.0;51.035;39.46953;-0.339393;17.4;NaN;6.37;2.3;203.95;11 / 34;11360;2021-10-20 19:32:34:117
8.0711;-7.147;0.5501;-4.8842;-8.4659;0.7901;-5.6842;-2.4377;-0.7987;-0.0905;0.2223;-0.4613;24.0;-38.1;-1.39;-3.66;21.12;78.39;75.39;0.0;51.035;39.46951;-0.339413;17.5;NaN;4.7;2.3;220.59;11 / 34;11411;2021-10-20 19:32:34:168
8.0711;-7.147;0.5501;-7.1922;-6.5984;0.972;0.4408;2.2538;-0.4725;0.4617;0.1012;-0.3726;24.0;-38.76;-3.24;-2.16;14.62;59.7;80.81;0.0;51.035;39.46951;-0.339413;17.5;NaN;4.7;2.3;220.59;11 / 34;11461;2021-10-20 19:32:34:218
7.025;-6.73;1.4261;-7.1922;-6.5984;0.972;1.5472;1.9543;-1.1421;0.4617;0.1012;-0.3726;24.0;-38.76;-3.24;-2.16;14.62;59.7;80.81;0.0;51.035;39.46951;-0.339413;17.5;NaN;4.7;2.3;220.59;11 / 34;11511;2021-10-20 19:32:34:268
6.063;-6.087;1.8551;-6.7852;-6.7708;2.0686;1.5472;1.9543;-1.1421;0.995;-0.1741;0.8166;24.0;-38.4;-9.84;-0.36;31.81;43.67;73.05;0.0;51.035;39.46951;-0.339413;17.5;NaN;4.7;2.3;220.59;11 / 34;11561;2021-10-20 19:32:34:318
5.244;-5.9621;1.4501;-7.2401;-6.3782;1.7573;2.4764;0.6044;-1.1916;0.9092;-0.1017;1.0704;24.0;-38.4;-9.84;-0.36;31.81;43.67;73.05;5.0;51.035;39.46951;-0.339413;17.5;NaN;4.7;2.3;220.59;11 / 34;11611;2021-10-20 19:32:34:368
4.1981;-6.393;1.8671;-7.9631;-5.2289;2.3272;3.3094;0.4277;-0.74;0.9092;-0.1017;1.0704;24.0;-37.39;-14.04;0.54;31.01;40.57;76.36;5.0;47.279;39.46951;-0.339413;17.5;NaN;4.7;2.3;220.59;11 / 34;11661;2021-10-20 19:32:34:418
4.8251;-7.3789;1.967;-8.011;-5.2433;2.1308;3.3094;0.4277;-0.74;0.7156;0.0468;1.0773;66.0;-36.84;-16.91;0.79;31.01;40.57;76.36;5.0;47.279;39.46951;-0.339413;17.5;NaN;4.7;2.3;220.59;11 / 34;11711;2021-10-20 19:32:34:468
4.8251;-7.3789;1.967;-8.011;-5.2433;2.1308;2.3777;0.8304;-0.6995;0.7156;0.0468;1.0773;66.0;-36.84;-16.91;0.79;31.01;40.57;76.36;5.0;47.279;39.46951;-0.339413;17.5;NaN;4.7;2.3;220.59;11 / 34;11761;2021-10-20 19:32:34:518
7.398;-9.524;1.055;-7.7141;-5.9951;0.8475;-0.6035;2.5972;0.4003;0.4037;0.0818;1.0299;66.0;-37.2;-18.54;0.6;22.07;37.69;83.73;5.0;47.279;39.46951;-0.339413;17.5;NaN;4.7;2.3;220.59;11 / 34;11810;2021-10-20 19:32:34:567
8.8661;-9.062;1.9841;-6.9288;-6.7708;1.5131;-0.6035;2.5972;0.4003;0.0346;-0.0965;0.4498;66.0;-37.8;-16.86;0.0;22.07;37.69;83.73;5.0;47.279;39.46951;-0.339413;17.5;NaN;4.7;2.3;220.59;11 / 34;11860;2021-10-20 19:32:34:617
12.348;-3.887;3.975;-2.8156;-8.9447;2.873;-3.5133;-0.4171;-1.5233;0.0346;-0.0965;0.4498;66.0;-37.8;-16.86;0.0;22.07;37.69;83.73;5.0;47.279;39.46951;-0.339413;17.5;NaN;4.7;2.3;220.59;11 / 34;11911;2021-10-20 19:32:34:668
8.447;-5.115;-0.0859;-5.0757;-8.3893;-0.0814;-3.0234;-2.1732;0.1012;0.4286;-0.1001;-0.8121;66.0;-38.89;-12.79;-1.5;56.48;65.79;44.42;5.0;47.279;39.46951;-0.339413;17.5;NaN;4.7;2.3;220.59;11 / 34;11961;2021-10-20 19:32:34:718
6.563;-4.392;-1.699;-5.3343;-7.9679;-2.0542;0.674;-1.3775;3.3094;0.109;-0.2384;-1.2932;66.0;-38.89;-12.79;-1.5;56.48;65.79;44.42;0.0;46.228;39.46951;-0.339413;17.5;NaN;4.7;2.3;220.59;11 / 34;12011;2021-10-20 19:32:34:768
6.563;-4.392;-1.699;-5.3343;-7.9679;-2.0542;0.674;-1.3775;3.3094;0.109;-0.2384;-1.2932;63.0;-39.49;-9.84;-3.24;335.51;54.34;111.06;0.0;46.228;39.46951;-0.339413;17.5;NaN;4.7;2.3;220.59;11 / 34;12061;2021-10-20 19:32:34:818
7.578;-3.664;-1.1771;-4.2329;-8.7436;-1.3503;0.3546;-2.1915;2.5259;-1.5566;-0.3304;-0.5908;63.0;-39.24;-8.76;-3.9;345.06;63.06;107.69;0.0;46.228;39.46951;-0.339413;17.5;NaN;4.7;2.3;220.59;11 / 34;12111;2021-10-20 19:32:34:868
7.47;-5.467;0.911;-5.7652;-7.8769;0.9481;0.8069;-0.8698;0.5211;-1.5566;-0.3304;-0.5908;63.0;-39.24;-8.76;-3.9;345.06;63.06;107.69;0.0;46.228;39.46951;-0.339413;17.5;NaN;4.7;2.3;220.59;11 / 34;12161;2021-10-20 19:32:34:918
9.632;-4.971;1.6151;-4.4388;-8.6239;1.4413;-0.6073;-0.1209;-1.6298;-0.943;-0.0026;-0.3231;63.0;-39.19;-7.61;-4.86;345.06;63.06;107.69;0.0;46.228;39.46951;-0.339413;17.5;NaN;4.7;2.3;220.59;11 / 34;12210;2021-10-20 19:32:34:967
9.95;-6.821;-0.203;-5.5402;-8.0876;-0.1532;-1.7585;1.4219;0.5818;0.1128;0.2732;-0.2648;63.0;-39.54;-5.76;-7.01;11.2;55.58;91.58;0.0;46.228;39.46951;-0.339413;17.5;NaN;4.7;2.3;220.59;11 / 34;12261;2021-10-20 19:32:35:018
11.5541;-7.25;-0.703;-5.205;-8.2983;-0.498;-1.7585;1.4219;0.5818;0.1128;0.2732;-0.2648;63.0;-39.54;-5.76;-7.01;11.2;55.58;91.58;0.0;47.974;39.46951;-0.339413;17.5;NaN;4.7;2.3;220.59;11 / 34;12310;2021-10-20 19:32:35:067
11.037;-8.612;0.0641;-6.0334;-7.7333;0.0383;-3.3318;1.9137;1.1384;-0.4801;0.2567;-0.1379;18.0;-39.54;-4.26;-7.74;7.35;57.78;95.47;0.0;47.974;39.46951;-0.339413;17.5;NaN;4.7;2.3;220.59;11 / 34;12361;2021-10-20 19:32:35:118
11.037;-8.612;0.0641;-6.0334;-7.7333;0.0383;-2.81;3.2723;0.2475;-0.7646;0.201;0.0723;18.0;-39.54;-4.26;-7.74;7.35;57.78;95.47;0.0;47.974;39.469498;-0.339425;17.5;NaN;3.42;2.2;205.71;12 / 34;12411;2021-10-20 19:32:35:168
14.682;-2.673;1.814;-1.743;-9.5816;1.1827;-3.974;-1.1246;-1.5918;-0.7646;0.201;0.0723;18.0;-39.54;-3.24;-5.16;10.04;52.04;89.64;0.0;47.974;39.469498;-0.339425;17.5;NaN;3.42;2.2;205.71;12 / 34;12461;2021-10-20 19:32:35:218
7.635;-7.434;0.9401;-6.8139;-7.0006;0.8619;-3.974;-1.1246;-1.5918;-0.191;0.2398;-0.5273;18.0;-39.79;-4.26;-0.71;13.3;45.55;82.79;0.0;47.974;39.469498;-0.339425;17.5;NaN;3.42;2.2;205.71;12 / 34;12511;2021-10-20 19:32:35:268
8.277;-5.8691;1.271;-5.6264;-7.9392;1.2163;0.5076;1.4313;-0.5664;1.203;-0.2834;-0.1074;18.0;-39.79;-4.26;-0.71;13.3;45.55;82.79;0.0;47.974;39.469498;-0.339425;17.5;NaN;3.42;2.2;205.71;12 / 34;12560;2021-10-20 19:32:35:317
6.644;-5.881;1.148;-6.4452;-7.2832;1.2546;1.3051;1.1148;-0.7147;1.203;-0.2834;-0.1074;18.0;-38.89;-7.14;2.76;13.3;45.55;82.79;5.0;45.118;39.469498;-0.339425;17.5;NaN;3.42;2.2;205.71;12 / 34;12611;2021-10-20 19:32:35:368
5.7131;-5.9021;1.1531;-6.9815;-6.7564;1.3551;1.3051;1.1148;-0.7147;1.0548;-0.4599;0.8653;18.0;-37.2;-10.44;3.9;8.57;47.96;78.99;5.0;45.118;39.469498;-0.339425;17.5;NaN;3.42;2.2;205.71;12 / 34;12660;2021-10-20 19:32:35:417
5.7131;-5.9021;1.1531;-6.9815;-6.7564;1.3551;2.388;0.4105;-0.4139;1.0548;-0.4599;0.8653;26.0;-37.2;-10.44;3.9;8.57;47.96;78.99;5.0;45.118;39.469498;-0.339425;17.5;NaN;3.42;2.2;205.71;12 / 34;12710;2021-10-20 19:32:35:467
4.7321;-6.592;1.227;-7.8769;-5.6599;1.4653;3.0562;1.1623;-0.9183;0.8001;-0.305;0.8213;26.0;-35.4;-14.16;3.36;21.56;35.24;79.46;5.0;45.118;39.469498;-0.339425;17.5;NaN;3.42;2.2;205.71;12 / 34;12760;2021-10-20 19:32:35:517
5.0861;-8.279;1.869;-8.2025;-5.0422;1.8531;3.0562;1.1623;-0.9183;0.512;-0.0312;1.1873;26.0;-35.4;-14.16;3.36;21.56;35.24;79.46;5.0;45.118;39.469498;-0.339425;17.5;NaN;3.42;2.2;205.71;12 / 34;12811;2021-10-20 19:32:35:568
7.4201;-8.5279;1.6181;-7.6471;-6.0669;0.9577;1.4824;2.0606;-0.4524;0.512;-0.0312;1.1873;26.0;-34.14;-16.86;1.86;21.56;35.24;79.46;5.0;45.118;39.469498;-0.339425;17.5;NaN;3.42;2.2;205.71;12 / 34;12860;2021-10-20 19:32:35:617
7.2761;-8.8781;1.6181;-7.6471;-6.0669;0.9577;-0.402;2.7208;-0.0374;0.4382;0.0232;1.2572;26.0;-33.49;-17.51;0.06;33.87;38.21;82.86;5.0;45.118;39.469498;-0.339425;17.5;NaN;3.42;2.2;205.71;12 / 34;12910;2021-10-20 19:32:35:667
10.4411;-5.187;2.661;-6.4212;-7.197;1.7669;-0.402;2.7208;-0.0374;0.0477;0.1403;0.1932;26.0;-33.49;-17.51;0.06;33.87;38.21;82.86;5.0;55.937;39.469498;-0.339425;17.5;NaN;3.42;2.2;205.71;12 / 34;12960;2021-10-20 19:32:35:717
10.4411;-5.187;2.661;-3.893;-8.849;1.6424;-3.7642;-1.8959;-1.3573;0.0477;0.1403;0.1932;26.0;-33.6;-14.81;-1.86;33.87;38.21;82.86;5.0;55.937;39.469498;-0.339425;17.5;NaN;3.42;2.2;205.71;12 / 34;13010;2021-10-20 19:32:35:767
9.696;-5.584;-0.3941;-5.1954;-8.2839;-0.7709;-2.7349;-1.218;1.7202;-0.15;0.1257;-0.8933;52.0;-34.44;-11.59;-3.06;354.83;57.62;98.44;5.0;55.937;39.469498;-0.339425;17.5;NaN;3.42;2.2;205.71;12 / 34;13060;2021-10-20 19:32:35:817
7.4921;-4.6481;-0.696;-4.6256;-8.6239;-0.6129;-0.1047;-1.6955;1.8836;-0.15;0.1257;-0.8933;52.0;-34.44;-11.59;-3.06;354.83;57.62;98.44;5.0;55.937;39.469498;-0.339425;17.5;NaN;3.42;2.2;205.71;12 / 34;13110;2021-10-20 19:32:35:867
7.0511;-3.643;-0.746;-4.9321;-8.4276;-0.9098;-0.1047;-1.6955;1.8836;-0.7674;-0.0566;-1.0913;52.0;-34.74;-10.39;-3.11;356.44;61.58;97.55;5.0;55.937;39.469498;-0.339425;17.5;NaN;3.42;2.2;205.71;12 / 34;13160;2021-10-20 19:32:35:917
6.939;-4.962;-0.059;-4.9321;-8.4276;-0.9098;1.0292;-1.8988;1.3692;-1.1223;-0.1121;-0.5548;52.0;-34.74;-10.39;-3.11;356.44;61.58;97.55;5.0;55.937;39.469498;-0.339425;17.5;NaN;3.42;2.2;205.71;12 / 34;13211;2021-10-20 19:32:35:968
8.5781;-5.0741;0.461;-5.703;-7.9727;0.3687;0.5852;-0.3757;-0.0938;-1.1223;-0.1121;-0.5548;52.0;-34.56;-10.31;-4.31;356.44;61.58;97.55;0.0;45.317;39.469498;-0.339425;17.5;NaN;3.42;2.2;205.71;12 / 34;13260;2021-10-20 19:32:36:017
8.5781;-5.0741;0.461;-4.7405;-8.5808;0.3639;-0.8781;-0.5734;-0.3267;-0.657;0.0593;-0.3095;52.0;-34.2;-9.54;-6.54;21.49;61.01;85.61;0.0;45.317;39.469498;-0.339425;17.5;NaN;3.42;2.2;205.71;12 / 34;13311;2021-10-20 19:32:36:068
9.201;-6.151;0.4331;-5.7796;-7.9152;0.3543;-0.8781;-0.5734;-0.3267;-0.2234;0.3171;-0.0932;26.0;-34.2;-9.54;-6.54;21.49;61.01;85.61;0.0;45.317;39.469498;-0.339425;17.5;NaN;3.42;2.2;205.71;12 / 34;13361;2021-10-20 19:32:36:118
10.055;-6.7849;0.15;-5.3965;-8.1834;-0.3065;-1.235;1.5747;-0.3174;-0.2234;0.3171;-0.0932;26.0;-33.6;-8.21;-7.31;22.11;53.81;86.49;0.0;45.317;39.469494;-0.339443;17.6;NaN;2.15;2.1;214.13;13 / 34;13411;2021-10-20 19:32:36:168
11.3381;-9.103;-0.0551;-5.3965;-8.1834;-0.3065;-3.4055;3.1959;0.5987;-0.4502;0.2893;0.0184;26.0;-33.6;-6.84;-6.66;22.11;53.81;86.49;0.0;45.317;39.469494;-0.339443;17.6;NaN;2.15;2.1;214.13;13 / 34;13461;2021-10-20 19:32:36:218
14.021;-2.8811;1.452;-3.1077;-9.256;0.8859;-3.4055;3.1959;0.5987;-0.4502;0.2893;0.0184;26.0;-33.6;-6.84;-6.66;22.11;53.81;86.49;0.0;45.317;39.469494;-0.339443;17.6;NaN;2.15;2.1;214.13;13 / 34;13511;2021-10-20 19:32:36:268
9.138;-6.036;0.9521;-3.5626;-9.0214;1.4509;-5.8404;-2.5403;-1.2774;-0.3475;0.2925;-0.356;26.0;-33.66;-6.06;-5.64;36.84;66.91;67.84;0.0;45.317;39.469494;-0.339443;17.6;NaN;2.15;2.1;214.13;13 / 34;13561;2021-10-20 19:32:36:318
9.138;-6.036;0.9521;-6.7516;-7.0294;1.1013;0.5539;1.8493;-0.6042;0.122;0.2904;-0.528;26.0;-33.66;-6.06;-5.64;36.84;66.91;67.84;0.0;48.496;39.469494;-0.339443;17.6;NaN;2.15;2.1;214.13;13 / 34;13610;2021-10-20 19:32:36:367
7.659;-6.472;1.496;-6.7516;-7.0294;1.1013;0.5539;1.8493;-0.6042;0.122;0.2904;-0.528;26.0;-33.24;-7.56;-4.86;30.81;45.78;80.74;5.0;48.496;39.469494;-0.339443;17.6;NaN;2.15;2.1;214.13;13 / 34;13661;2021-10-20 19:32:36:418
7.755;-5.79;1.397;-5.8083;-7.7764;1.3934;0.558;0.9163;-1.0979;0.6303;0.1012;0.2525;34.0;-32.4;-10.61;-4.01;30.81;45.78;80.74;5.0;48.496;39.469494;-0.339443;17.6;NaN;2.15;2.1;214.13;13 / 34;13710;2021-10-20 19:32:36:467
6.335;-6.1061;1.397;-6.7229;-6.9767;1.5323;1.4746;0.7582;-0.2761;0.4833;-0.0144;0.7022;34.0;-32.4;-10.61;-4.01;30.81;45.78;80.74;5.0;48.496;39.469494;-0.339443;17.6;NaN;2.15;2.1;214.13;13 / 34;13760;2021-10-20 19:32:36:517
4.9571;-6.2539;1.926;-7.4795;-5.9137;2.2984;1.4746;0.7582;-0.2761;0.4833;-0.0144;0.7022;34.0;-30.79;-13.74;-3.06;41.27;45.34;77.16;5.0;48.496;39.469494;-0.339443;17.6;NaN;2.15;2.1;214.13;13 / 34;13810;2021-10-20 19:32:36:567
5.0501;-6.0701;1.029;-7.4795;-6.2201;1.2593;3.0235;0.6235;-0.9157;0.4756;0.0578;0.8587;34.0;-29.34;-15.66;-2.81;41.27;45.34;77.16;5.0;48.496;39.469494;-0.339443;17.6;NaN;2.15;2.1;214.13;13 / 34;13860;2021-10-20 19:32:36:617
5.0501;-6.0701;1.029;-7.4795;-6.2201;1.2593;2.3533;0.8416;0.5362;0.4756;0.0578;0.8587;34.0;-29.34;-15.66;-2.81;41.27;45.34;77.16;5.0;43.899;39.469494;-0.339443;17.6;NaN;2.15;2.1;214.13;13 / 34;13910;2021-10-20 19:32:36:667
6.1661;-8.387;0.588;-7.8913;-5.7988;0.5507;2.3533;0.8416;0.5362;0.2941;0.066;0.9394;34.0;-29.46;-16.99;-2.7;56.88;36.24;86.01;5.0;43.899;39.469494;-0.339443;17.6;NaN;2.15;2.1;214.13;13 / 34;13960;2021-10-20 19:32:36:717
8.916;-8.49;0.861;-6.7469;-7.082;0.68;-1.4332;1.0984;0.2673;-0.1063;-0.1893;0.5176;34.0;-29.46;-16.99;-2.7;56.88;36.24;86.01;5.0;43.899;39.469494;-0.339443;17.6;NaN;2.15;2.1;214.13;13 / 34;14010;2021-10-20 19:32:36:767
8.2241;-7.039;2.36;-6.2297;-7.2784;2.0877;-0.3349;1.5814;-0.0162;-0.1063;-0.1893;0.5176;58.0;-30.3;-16.39;-3.06;30.25;46.24;84.25;5.0;43.899;39.469494;-0.339443;17.6;NaN;2.15;2.1;214.13;13 / 34;14060;2021-10-20 19:32:36:817
11.376;-4.3271;2.7;-3.3998;-8.9495;2.1213;-4.3181;-2.276;-2.1924;0.1246;-0.0597;-0.0817;58.0;-30.96;-13.44;-4.8;30.25;46.24;84.25;5.0;43.899;39.469494;-0.339443;17.6;NaN;2.15;2.1;214.13;13 / 34;14110;2021-10-20 19:32:36:867
8.0831;-5.0359;-0.7391;-5.1667;-8.3031;-0.7566;-1.6477;-1.4673;1.5534;0.2775;-0.0025;-0.848;58.0;-30.96;-13.44;-4.8;30.25;46.24;84.25;5.0;43.899;39.469494;-0.339443;17.6;NaN;2.15;2.1;214.13;13 / 34;14161;2021-10-20 19:32:36:918
7.635;-4.119;-0.555;-4.6448;-8.6143;-0.6177;-1.6477;-1.4673;1.5534;0.2775;-0.0025;-0.848;58.0;-31.69;-11.46;-5.76;3.43;57.83;98.33;5.0;43.365;39.469494;-0.339443;17.6;NaN;2.15;2.1;214.13;13 / 34;14210;2021-10-20 19:32:36:967
7.635;-4.119;-0.555;-4.6448;-8.6143;-0.6177;0.14;-1.7549;1.7287;-0.5801;-0.0951;-1.016;58.0;-32.29;-10.61;-6.11;4.24;61.46;97.58;0.0;43.365;39.469494;-0.339443;17.6;NaN;2.15;2.1;214.13;13 / 34;14261;2021-10-20 19:32:37:018
7.5371;-3.9611;-0.296;-4.5538;-8.6814;-0.3304;0.4291;-1.385;0.1922;-1.0766;-0.1301;-0.4929;58.0;-32.29;-10.61;-6.11;4.24;61.46;97.58;0.0;43.365;39.469494;-0.339443;17.6;NaN;2.15;2.1;214.13;13 / 34;14311;2021-10-20 19:32:37:068
8.0231;-4.7411;1.005;-4.9608;-8.3941;1.0391;0.4291;-1.385;0.1922;-1.0766;-0.1301;-0.4929;39.0;-32.64;-9.49;-7.5;4.24;61.46;97.58;0.0;43.365;39.469494;-0.339443;17.6;NaN;2.15;2.1;214.13;13 / 34;14361;2021-10-20 19:32:37:118
9.249;-5.4551;0.15;-4.9752;-8.4467;0.1389;-0.0851;-0.4098;-0.4231;-0.534;0.1203;-0.3664;39.0;-32.64;-9.49;-7.5;4.24;61.46;97.58;0.0;43.365;39.469486;-0.339455;17.6;NaN;2.89;2.0;216.67;15 / 34;14411;2021-10-20 19:32:37:168
10.35;-7.092;0.059;-5.5402;-8.0876;0.0431;-1.2617;0.832;0.2082;-0.534;0.1203;-0.3664;39.0;-32.76;-8.21;-8.76;22.33;59.49;88.4;0.0;43.365;39.469486;-0.339455;17.6;NaN;2.89;2.0;216.67;15 / 34;14461;2021-10-20 19:32:37:218
12.2411;-7.729;-0.136;-5.2385;-8.2935;-0.0814;-3.7433;2.0486;0.0792;-0.3143;0.2358;-0.0283;39.0;-32.94;-7.31;-9.0;22.33;59.49;88.4;0.0;43.365;39.469486;-0.339455;17.6;NaN;2.89;2.0;216.67;15 / 34;14510;2021-10-20 19:32:37:267
12.2411;-7.729;-0.136;-5.2385;-8.2935;-0.0814;-3.7433;2.0486;0.0792;-0.4982;0.1969;0.0127;39.0;-32.94;-7.31;-9.0;22.33;59.49;88.4;0.0;47.235;39.469486;-0.339455;17.6;NaN;2.89;2.0;216.67;15 / 34;14560;2021-10-20 19:32:37:317
11.9561;-4.7029;1.5791;-3.5626;-9.0597;1.1875;-3.9235;1.5233;-0.7996;-0.4982;0.1969;0.0127;39.0;-33.36;-6.36;-8.4;36.58;67.49;71.57;0.0;47.235;39.469486;-0.339455;17.6;NaN;2.89;2.0;216.67;15 / 34;14610;2021-10-20 19:32:37:367
10.9841;-3.178;1.455;-2.7007;-9.347;1.2306;-3.706;-2.6907;-1.8287;-0.1536;0.3252;-0.5434;39.0;-33.49;-5.64;-7.91;41.56;72.38;65.5;0.0;47.235;39.469486;-0.339455;17.6;NaN;2.89;2.0;216.67;15 / 34;14660;2021-10-20 19:32:37:417
7.2161;-7.209;-0.1;-6.8857;-6.9815;0.1724;1.4035;2.534;0.5873;0.0407;0.2339;-0.4018;24.0;-33.49;-5.64;-7.91;41.56;72.38;65.5;5.0;47.235;39.469486;-0.339455;17.6;NaN;2.89;2.0;216.67;15 / 34;14710;2021-10-20 19:32:37:467
8.3411;-5.7011;0.801;-5.4684;-8.078;1.0104;1.4035;2.534;0.5873;0.0407;0.2339;-0.4018;24.0;-33.36;-7.14;-6.3;41.56;72.38;65.5;5.0;47.235;39.469486;-0.339455;17.6;NaN;2.89;2.0;216.67;15 / 34;14760;2021-10-20 19:32:37:517
7.0871;-5.5931;1.685;-5.4684;-8.078;1.0104;0.3707;0.7836;-0.4746;0.1862;-0.15;0.529;24.0;-33.36;-7.14;-6.3;41.56;72.38;65.5;5.0;47.235;39.469486;-0.339455;17.6;NaN;2.89;2.0;216.67;15 / 34;14810;2021-10-20 19:32:37:567
7.0871;-5.5931;1.685;-6.4548;-7.1204;1.9632;1.9314;0.6971;-1.2199;0.1862;-0.15;0.529;24.0;-33.6;-10.09;-3.96;25.42;55.46;79.53;5.0;46.782;39.469486;-0.339455;17.6;NaN;2.89;2.0;216.67;15 / 34;14860;2021-10-20 19:32:37:617
5.6531;-6.206;1.8161;-7.513;-5.952;2.083;1.9314;0.6971;-1.2199;0.6905;-0.2254;0.6967;24.0;-34.14;-12.54;-4.14;44.78;46.54;73.08;5.0;46.782;39.469486;-0.339455;17.6;NaN;2.89;2.0;216.67;15 / 34;14910;2021-10-20 19:32:37:667
4.887;-6.594;1.8641;-7.8673;-5.5929;1.7286;2.943;0.871;-0.9555;0.9514;-0.0358;1.0234;24.0;-34.14;-12.54;-4.14;44.78;46.54;73.08;5.0;46.782;39.469486;-0.339455;17.6;NaN;2.89;2.0;216.67;15 / 34;14961;2021-10-20 19:32:37:718
5.5481;-8.0801;1.113;-7.8673;-5.5929;1.7286;2.3795;1.4224;-0.5121;0.9514;-0.0358;1.0234;24.0;-34.56;-14.34;-4.91;59.21;34.77;77.61;5.0;46.782;39.469486;-0.339455;17.6;NaN;2.89;2.0;216.67;15 / 34;15010;2021-10-20 19:32:37:767
7.91;-7.7119;0.3971;-6.9049;-6.9336;0.656;-0.0884;0.8716;0.6033;0.4907;-0.0146;1.0918;52.0;-35.1;-14.76;-5.1;31.19;44.99;84.57;5.0;46.782;39.469486;-0.339455;17.6;NaN;2.89;2.0;216.67;15 / 34;15061;2021-10-20 19:32:37:818
6.434;-8.9329;1.7231;-7.853;-5.8371;0.6177;-0.0884;0.8716;0.6033;-0.105;-0.1847;0.6405;52.0;-35.1;-14.76;-5.1;31.19;44.99;84.57;5.0;46.782;39.469486;-0.339455;17.6;NaN;2.89;2.0;216.67;15 / 34;15111;2021-10-20 19:32:37:868
10.701;-4.6601;3.446;-4.8507;-7.9392;3.0981;0.4864;2.0714;-0.5207;-0.105;-0.1847;0.6405;52.0;-36.24;-12.84;-6.36;39.6;36.54;85.5;5.0;45.401;39.469486;-0.339455;17.6;NaN;2.89;2.0;216.67;15 / 34;15161;2021-10-20 19:32:37:918
10.701;-4.6601;3.446;-4.3;-8.7676;0.8954;-3.8343;-2.2477;-2.2408;0.2087;0.0477;-0.1823;52.0;-36.24;-12.84;-6.36;39.6;36.54;85.5;5.0;45.401;39.469486;-0.339455;17.6;NaN;2.89;2.0;216.67;15 / 34;15210;2021-10-20 19:32:37:967
9.2321;-5.474;-0.0619;-5.2337;-8.2552;-0.7949;-1.2283;-0.9386;2.0667;0.1143;0.0912;-0.913;52.0;-36.79;-9.24;-8.21;39.6;36.54;85.5;5.0;45.401;39.469486;-0.339455;17.6;NaN;2.89;2.0;216.67;15 / 34;15260;2021-10-20 19:32:38:017
8.585;-4.095;-0.677;-5.2337;-8.2552;-0.7949;-1.2283;-0.9386;2.0667;0.1143;0.0912;-0.913;52.0;-37.74;-6.36;-9.41;6.17;57.33;98.64;0.0;45.401;39.469486;-0.339455;17.6;NaN;2.89;2.0;216.67;15 / 34;15311;2021-10-20 19:32:38:068
8.214;-3.87;-0.99;-3.5338;-9.1028;-0.9098;-1.0985;-2.6419;2.1041;-0.4599;0.0576;-1.1961;55.0;-37.74;-6.36;-9.41;6.17;57.33;98.64;0.0;45.401;39.469486;-0.339455;17.6;NaN;2.89;2.0;216.67;15 / 34;15361;2021-10-20 19:32:38:118
7.496;-5.397;0.639;-5.4827;-8.1307;-0.0144;0.6272;-0.6738;0.6208;-0.4599;0.0576;-1.1961;55.0;-37.86;-5.21;-9.6;0.35;68.16;104.44;0.0;45.401;39.46948;-0.339465;17.6;NaN;3.33;1.9;209.09;15 / 34;15411;2021-10-20 19:32:38:168
8.906;-4.8919;0.5171;-4.7166;-8.5808;0.4884;0.6272;-0.6738;0.6208;-1.361;0.0556;-0.5811;55.0;-37.2;-4.74;-9.96;0.35;68.16;104.44;0.0;45.401;39.46948;-0.339465;17.6;NaN;3.33;1.9;209.09;15 / 34;15460;2021-10-20 19:32:38:217
8.906;-4.8919;0.5171;-4.7166;-8.5808;0.4884;-0.7448;-0.557;-0.1997;-0.6511;0.1683;-0.3349;55.0;-37.2;-4.74;-9.96;0.35;68.16;104.44;0.0;45.612;39.46948;-0.339465;17.6;NaN;3.33;1.9;209.09;15 / 34;15510;2021-10-20 19:32:38:267
9.852;-5.859;-0.119;-5.0135;-8.4276;-0.091;-1.6019;1.1399;0.3622;-0.6511;0.1683;-0.3349;55.0;-37.39;-3.49;-11.34;18.75;59.25;91.04;0.0;45.612;39.46948;-0.339465;17.6;NaN;3.33;1.9;209.09;15 / 34;15561;2021-10-20 19:32:38:318
11.4791;-7.518;0.014;-5.3678;-8.2073;0.0096;-1.6019;1.1399;0.3622;-0.3139;0.2135;-0.1477;55.0;-37.39;-3.49;-11.34;18.75;59.25;91.04;0.0;45.612;39.46948;-0.339465;17.6;NaN;3.33;1.9;209.09;15 / 34;15611;2021-10-20 19:32:38:368
12.375;-7.3699;1.4741;-3.6296;-9.0022;1.4078;-3.7442;3.7081;-0.3447;-0.3613;0.2195;0.0516;55.0;-37.56;-2.04;-11.94;18.75;59.25;91.04;0.0;45.612;39.46948;-0.339465;17.6;NaN;3.33;1.9;209.09;15 / 34;15660;2021-10-20 19:32:38:417
12.224;-3.276;2.4581;-3.6296;-9.0022;1.4078;-4.7731;-1.7475;-2.0419;-0.3613;0.2195;0.0516;26.0;-38.29;-1.26;-11.76;41.54;66.61;68.8;5.0;45.612;39.46948;-0.339465;17.6;NaN;3.33;1.9;209.09;15 / 34;15711;2021-10-20 19:32:38:468
6.917;-7.147;1.079;-4.0127;-8.7676;1.7957;0.1209;1.2144;-0.7235;-0.0084;0.4085;-0.4271;26.0;-38.29;-1.26;-11.76;41.54;66.61;68.8;5.0;45.612;39.46948;-0.339465;17.6;NaN;3.33;1.9;209.09;15 / 34;15760;2021-10-20 19:32:38:517
6.917;-7.147;1.079;-7.3502;-6.3829;1.1923;0.1209;1.2144;-0.7235;-0.0084;0.4085;-0.4271;26.0;-39.19;-2.64;-10.61;38.33;40.6;80.79;5.0;49.989;39.46948;-0.339465;17.6;NaN;3.33;1.9;209.09;15 / 34;15810;2021-10-20 19:32:38:567
7.235;-5.799;1.328;-5.9041;-7.671;1.5658;1.1855;0.8192;-0.5372;0.4873;0.2225;-0.0263;26.0;-39.96;-6.11;-8.46;35.84;51.47;75.15;5.0;49.989;39.46948;-0.339465;17.6;NaN;3.33;1.9;209.09;15 / 34;15860;2021-10-20 19:32:38:617
6.596;-5.256;1.256;-6.2824;-7.4124;1.336;1.6139;-0.0452;-0.3277;0.5478;-0.1452;0.8658;26.0;-39.96;-6.11;-8.46;35.84;51.47;75.15;5.0;49.989;39.46948;-0.339465;17.6;NaN;3.33;1.9;209.09;15 / 34;15911;2021-10-20 19:32:38:668
5.811;-5.744;1.373;-7.106;-6.5266;1.7621;2.1624;0.1039;-0.3447;0.5478;-0.1452;0.8658;26.0;-40.2;-9.79;-6.54;34.68;49.09;77.99;5.0;49.989;39.46948;-0.339465;17.6;NaN;3.33;1.9;209.09;15 / 34;15961;2021-10-20 19:32:38:718
5.4041;-6.0169;1.455;-7.106;-6.5266;1.7621;2.1624;0.1039;-0.3447;0.698;-0.2978;0.657;26.0;-40.2;-9.79;-6.54;34.68;49.09;77.99;5.0;49.989;39.46948;-0.339465;17.6;NaN;3.33;1.9;209.09;15 / 34;16010;2021-10-20 19:32:38:767
5.5811;-7.9751;1.22;-7.8051;-5.7604;1.4413;2.36;0.4611;-0.224;0.692;-0.3314;0.7464;48.0;-39.9;-13.14;-4.56;34.68;49.09;77.99;5.0;49.989;39.46948;-0.339465;17.6;NaN;3.33;1.9;209.09;15 / 34;16061;2021-10-20 19:32:38:818
8.241;-8.229;1.5341;-7.5082;-6.1675;1.3408;0.3017;2.0003;-0.2639;0.692;-0.3314;0.7464;48.0;-40.2;-14.64;-3.6;40.92;38.96;79.88;5.0;49.989;39.46948;-0.339465;17.6;NaN;3.33;1.9;209.09;15 / 34;16111;2021-10-20 19:32:38:868
8.241;-8.229;1.5341;-6.9959;-6.8522;0.5267;0.3017;2.0003;-0.2639;0.4795;-0.3589;0.8671;48.0;-40.2;-14.64;-3.6;40.92;38.96;79.88;5.0;44.674;39.46948;-0.339465;17.6;NaN;3.33;1.9;209.09;15 / 34;16160;2021-10-20 19:32:38:917
8.205;-8.4799;1.091;-6.9959;-6.8522;0.5267;-1.6713;2.1034;0.5746;0.2613;-0.3398;0.3257;48.0;-41.1;-13.44;-4.31;20.35;44.32;85.69;5.0;44.674;39.46948;-0.339465;17.6;NaN;3.33;1.9;209.09;15 / 34;16210;2021-10-20 19:32:38:967
10.0361;-4.3009;3.1451;-3.711;-8.667;2.7102;-3.0658;-2.5047;-1.8784;0.2613;-0.3398;0.3257;48.0;-41.59;-10.56;-5.81;53.79;62.07;53.86;5.0;44.674;39.46948;-0.339465;17.6;NaN;3.33;1.9;209.09;15 / 34;16260;2021-10-20 19:32:39:017
8.712;-5.242;-0.038;-5.0518;-8.4036;-0.0239;-1.4603;-1.2389;1.3904;0.498;-0.1946;-0.6966;48.0;-41.59;-10.56;-5.81;53.79;62.07;53.86;5.0;44.674;39.46948;-0.339465;17.6;NaN;3.33;1.9;209.09;15 / 34;16310;2021-10-20 19:32:39:067
7.8941;-4.9849;-0.792;-5.2098;-8.2648;-0.8284;-1.4603;-1.2389;1.3904;0.498;-0.1946;-0.6966;55.0;-41.7;-8.21;-7.31;12.03;58.99;90.27;5.0;44.674;39.46948;-0.339465;17.6;NaN;3.33;1.9;209.09;15 / 34;16360;2021-10-20 19:32:39:117
8.138;-3.64;-0.916;-3.984;-8.9064;-1.0008;-0.2797;-1.0775;2.1024;-0.2203;-0.1486;-0.9795;55.0;-41.7;-8.21;-7.31;12.03;58.99;90.27;5.0;44.674;39.46947;-0.339477;17.6;NaN;3.44;1.9;201.95;17 / 34;16410;2021-10-20 19:32:39:167
8.138;-3.64;-0.916;-3.984;-8.9064;-1.0008;0.178;-1.8242;1.6566;-1.3695;-0.106;-0.5834;55.0;-41.7;-7.09;-7.91;356.05;65.24;104.1;5.0;42.456;39.46947;-0.339477;17.6;NaN;3.44;1.9;201.95;17 / 34;16460;2021-10-20 19:32:39:217
7.599;-4.7269;-0.033;-5.1858;-8.3222;-0.0287;0.6418;-0.3069;0.2158;-1.3695;-0.106;-0.5834;55.0;-42.24;-6.96;-9.0;356.05;65.24;104.1;5.0;42.456;39.46947;-0.339477;17.6;NaN;3.44;1.9;201.95;17 / 34;16510;2021-10-20 19:32:39:267
8.1071;-4.933;0.1361;-4.8985;-8.4946;0.0527;0.6418;-0.3069;0.2158;-1.0006;0.0421;-0.3952;55.0;-42.24;-6.96;-9.0;356.05;65.24;104.1;0.0;42.456;39.46947;-0.339477;17.6;NaN;3.44;1.9;201.95;17 / 34;16560;2021-10-20 19:32:39:317
8.736;-6.0431;0.0161;-5.861;-7.8626;0.0814;-0.2153;-0.4361;0.0174;-0.3761;0.1649;-0.0495;55.0;-42.66;-7.14;-10.61;18.81;60.03;89.38;0.0;42.456;39.46947;-0.339477;17.6;NaN;3.44;1.9;201.95;17 / 34;16610;2021-10-20 19:32:39:367
10.113;-7.0609;0.2441;-5.861;-7.8626;0.0814;-1.1639;1.7367;-0.1511;-0.3761;0.1649;-0.0495;55.0;-42.3;-6.36;-11.64;22.79;53.3;89.2;0.0;42.456;39.46947;-0.339477;17.6;NaN;3.44;1.9;201.95;17 / 34;16660;2021-10-20 19:32:39:417
11.6231;-9.021;0.653;-5.4875;-8.1259;0.1053;-1.1639;1.7367;-0.1511;-0.2622;0.2067;0.0967;28.0;-42.3;-6.36;-11.64;22.79;53.3;89.2;0.0;42.456;39.46947;-0.339477;17.6;NaN;3.44;1.9;201.95;17 / 34;16710;2021-10-20 19:32:39:467
11.6231;-9.021;0.653;-2.8204;-9.2608;1.5706;-3.4314;3.6182;-0.5866;-0.2622;0.2067;0.0967;28.0;-42.79;-4.86;-11.51;21.45;55.96;88.9;0.0;42.456;39.46947;-0.339477;17.6;NaN;3.44;1.9;201.95;17 / 34;16760;2021-10-20 19:32:39:517
13.421;-2.161;2.625;-3.8403;-8.9783;0.9242;-5.2034;-3.2044;-2.4379;-0.0249;0.2657;-0.0583;28.0;-42.79;-4.86;-11.51;21.45;55.96;88.9;0.0;47.298;39.46947;-0.339477;17.6;NaN;3.44;1.9;201.95;17 / 34;16810;2021-10-20 19:32:39:567
8.04;-6.134;0.134;-3.8403;-8.9783;0.9242;-5.2034;-3.2044;-2.4379;0.1265;0.3395;-0.572;28.0;-43.44;-4.14;-10.5;21.45;55.96;88.9;0.0;47.298;39.46947;-0.339477;17.6;NaN;3.44;1.9;201.95;17 / 34;16860;2021-10-20 19:32:39:617
8.363;-5.952;0.356;-6.9336;-6.9336;-0.1628;1.4776;2.1882;0.5184;0.1265;0.3395;-0.572;28.0;-43.8;-6.11;-8.04;14.47;44.99;91.35;0.0;47.298;39.46947;-0.339477;17.6;NaN;3.44;1.9;201.95;17 / 34;16910;2021-10-20 19:32:39:667
8.643;-4.8971;1.6511;-4.6112;-8.5665;1.2258;-0.4304;0.3941;-0.4131;0.1877;0.063;-0.1257;28.0;-43.8;-6.11;-8.04;14.47;44.99;91.35;5.0;47.298;39.46947;-0.339477;17.6;NaN;3.44;1.9;201.95;17 / 34;16960;2021-10-20 19:32:39:717
6.149;-5.933;1.601;-6.3159;-7.2449;1.9489;0.8427;0.2742;-1.3182;0.6721;-0.3205;0.525;28.0;-44.59;-10.69;-3.9;25.92;60.88;75.11;5.0;47.298;39.46947;-0.339477;17.6;NaN;3.44;1.9;201.95;17 / 34;17010;2021-10-20 19:32:39:767
6.149;-5.933;1.601;-6.8091;-6.7756;1.9776;0.8427;0.2742;-1.3182;0.6721;-0.3205;0.525;34.0;-44.29;-14.59;-0.6;36.09;43.7;73.8;5.0;47.298;39.46947;-0.339477;17.6;NaN;3.44;1.9;201.95;17 / 34;17060;2021-10-20 19:32:39:817
5.943;-6.173;1.721;-7.1539;-6.4596;1.8244;2.207;0.7697;-0.964;1.2797;-0.3011;0.6502;34.0;-44.29;-14.59;-0.6;36.09;43.7;73.8;5.0;51.932;39.46947;-0.339477;17.6;NaN;3.44;1.9;201.95;17 / 34;17111;2021-10-20 19:32:39:868
5.711;-6.807;1.266;-7.7572;-5.9807;0.4693;2.2793;0.6925;-0.5608;0.9526;-0.3371;0.9813;34.0;-42.36;-17.29;1.86;30.5;41.18;75.69;5.0;51.932;39.46947;-0.339477;17.6;NaN;3.44;1.9;201.95;17 / 34;17161;2021-10-20 19:32:39:918
6.56;-7.9609;0.414;-7.7572;-5.9807;0.4693;1.5608;1.8824;0.7285;0.9526;-0.3371;0.9813;34.0;-42.36;-17.29;1.86;30.5;41.18;75.69;5.0;51.932;39.46947;-0.339477;17.6;NaN;3.44;1.9;201.95;17 / 34;17211;2021-10-20 19:32:39:968
7.4801;-9.004;0.72;-7.1922;-6.6367;0.6177;-0.2339;2.4891;0.4176;0.4087;-0.5257;0.8573;34.0;-39.96;-18.36;4.2;351.24;37.58;86.54;5.0;51.932;39.46947;-0.339477;17.6;NaN;3.44;1.9;201.95;17 / 34;17261;2021-10-20 19:32:40:018
8.7671;-5.601;2.709;-6.5027;-7.1587;1.6185;-0.2339;2.4891;0.4176;0.4087;-0.5257;0.8573;34.0;-38.94;-15.79;4.99;14.57;46.89;76.02;5.0;51.932;39.46947;-0.339477;17.6;NaN;3.44;1.9;201.95;17 / 34;17311;2021-10-20 19:32:40:068
9.876;-4.612;2.463;-3.4141;-8.7293;2.8874;-1.7105;-1.1443;-1.6735;0.4209;-0.4832;0.3473;46.0;-38.94;-15.79;4.99;14.57;46.89;76.02;5.0;51.932;39.46947;-0.339477;17.6;NaN;3.44;1.9;201.95;17 / 34;17360;2021-10-20 19:32:40:117
9.876;-4.612;2.463;-6.0765;-7.6806;0.5363;-2.7229;-2.0007;-1.2666;0.8924;-0.2834;-0.5199;46.0;-39.6;-11.59;3.49;14.57;46.89;76.02;5.0;51.932;39.46946;-0.339482;17.6;NaN;4.46;1.9;187.0;17 / 34;17410;2021-10-20 19:32:40:167
7.338;-6.1271;0.165;-4.6017;-8.6526;0.3639;-0.2202;-0.6951;1.2809;0.8924;-0.2834;-0.5199;46.0;-39.79;-8.34;1.69;3.31;51.54;84.96;5.0;45.847;39.46946;-0.339482;17.6;NaN;4.46;1.9;187.0;17 / 34;17460;2021-10-20 19:32:40:217
8.6861;-3.822;0.119;-4.6017;-8.6526;0.3639;-0.2202;-0.6951;1.2809;0.5724;-0.3997;-0.6722;46.0;-39.79;-8.34;1.69;3.31;51.54;84.96;5.0;45.847;39.46946;-0.339482;17.6;NaN;4.46;1.9;187.0;17 / 34;17511;2021-10-20 19:32:40:268
7.6331;-3.983;-0.4661;-4.142;-8.8442;-0.9242;-0.1237;-2.0802;2.0321;-0.6879;-0.2901;-0.5519;46.0;-38.64;-6.49;0.3;345.01;64.37;102.58;5.0;45.847;39.46946;-0.339482;17.6;NaN;4.46;1.9;187.0;17 / 34;17560;2021-10-20 19:32:40:317
7.769;-4.6691;0.239;-5.2864;-8.2552;0.2921;0.6664;-0.8652;0.5868;-0.6879;-0.2901;-0.5519;46.0;-38.64;-6.49;0.3;345.01;64.37;102.58;0.0;45.847;39.46946;-0.339482;17.6;NaN;4.46;1.9;187.0;17 / 34;17611;2021-10-20 19:32:40:368
8.138;-5.108;-0.2891;-4.8794;-8.5042;-0.2681;0.6664;-0.8652;0.5868;-0.7989;-0.0421;-0.551;46.0;-38.59;-4.31;-1.56;7.74;57.33;86.84;0.0;45.847;39.46946;-0.339482;17.6;NaN;4.46;1.9;187.0;17 / 34;17660;2021-10-20 19:32:40:417
8.138;-5.108;-0.2891;-5.794;-7.9104;0.1772;0.1083;-0.1879;0.7709;-0.7989;-0.0421;-0.551;33.0;-39.0;-2.46;-3.41;1.49;60.12;93.15;0.0;45.847;39.46946;-0.339482;17.6;NaN;4.46;1.9;187.0;17 / 34;17711;2021-10-20 19:32:40:468
10.745;-6.7639;0.99;-4.3814;-8.7771;0.0335;-2.4575;1.5054;-0.6291;-0.6453;0.1607;-0.0374;33.0;-39.0;-2.46;-3.41;1.49;60.12;93.15;0.0;45.14;39.46946;-0.339482;17.6;NaN;4.46;1.9;187.0;17 / 34;17761;2021-10-20 19:32:40:518
14.2991;-7.8821;0.179;-4.3814;-8.7771;0.0335;-5.4219;3.4587;-0.061;-0.5604;0.2047;-0.026;33.0;-38.7;-0.66;-4.01;1.49;60.12;93.15;5.0;45.14;39.46946;-0.339482;17.6;NaN;4.46;1.9;187.0;17 / 34;17811;2021-10-20 19:32:40:568
13.241;-4.806;1.086;-4.8507;-8.5138;0.4884;-5.4219;3.4587;-0.061;-0.5604;0.2047;-0.026;33.0;-39.19;0.96;-3.36;11.49;60.2;84.25;5.0;45.14;39.46946;-0.339482;17.6;NaN;4.46;1.9;187.0;17 / 34;17860;2021-10-20 19:32:40:617
10.749;-4.0849;-0.2171;-3.4764;-9.1698;-0.1724;-5.445;-2.3895;-0.9292;-0.3601;0.2835;-0.4301;33.0;-39.19;0.96;-3.36;11.49;60.2;84.25;5.0;45.14;39.46946;-0.339482;17.6;NaN;4.46;1.9;187.0;17 / 34;17910;2021-10-20 19:32:40:667
6.206;-7.796;0.4901;-3.4764;-9.1698;-0.1724;-0.2946;1.2688;0.6198;-0.3294;0.197;-0.3799;33.0;-39.66;-0.84;-3.36;1.57;69.21;92.84;5.0;45.14;39.46946;-0.339482;17.6;NaN;4.46;1.9;187.0;17 / 34;17961;2021-10-20 19:32:40:718
6.206;-7.796;0.4901;-7.3933;-6.3877;0.8475;2.4729;2.4364;-0.5028;-0.3294;0.197;-0.3799;33.0;-39.66;-0.84;-3.36;1.57;69.21;92.84;5.0;45.14;39.46946;-0.339482;17.6;NaN;4.46;1.9;187.0;17 / 34;18010;2021-10-20 19:32:40:767
7.341;-5.4259;1.218;-5.8706;-7.7476;1.312;2.4729;2.4364;-0.5028;0.0956;0.0297;0.538;30.0;-39.79;-4.91;-2.4;16.6;40.64;83.46;5.0;48.624;39.46946;-0.339482;17.6;NaN;4.46;1.9;187.0;17 / 34;18061;2021-10-20 19:32:40:818
5.6321;-5.809;1.412;-7.0294;-6.6271;1.7047;2.0778;0.4682;-0.9904;0.0956;0.0297;0.538;30.0;-39.6;-8.34;-0.41;24.84;42.5;76.37;5.0;48.624;39.46946;-0.339482;17.6;NaN;4.46;1.9;187.0;17 / 34;18110;2021-10-20 19:32:40:867
5.163;-5.677;1.158;-7.0294;-6.6271;1.7047;2.7818;-0.0821;-0.6877;0.5815;0.0253;0.9948;30.0;-39.6;-8.34;-0.41;24.84;42.5;76.37;5.0;48.624;39.46946;-0.339482;17.6;NaN;4.46;1.9;187.0;17 / 34;18160;2021-10-20 19:32:40:917
4.796;-6.3791;1.7711;-7.7572;-5.7557;1.7142;3.1076;0.3448;-0.583;0.6093;-0.0018;0.8154;30.0;-38.89;-10.86;0.49;32.06;35.92;77.54;5.0;48.624;39.46946;-0.339482;17.6;NaN;4.46;1.9;187.0;17 / 34;18210;2021-10-20 19:32:40:967
6.7451;-7.506;1.196;-7.3981;-6.1675;1.834;3.1076;0.3448;-0.583;0.6093;-0.0018;0.8154;30.0;-38.4;-11.64;0.24;32.06;35.92;77.54;5.0;48.624;39.46946;-0.339482;17.6;NaN;4.46;1.9;187.0;17 / 34;18261;2021-10-20 19:32:41:018
6.7451;-7.506;1.196;-7.1491;-6.675;0.7039;0.579;1.0719;-0.0942;0.52;-0.0192;0.8356;30.0;-38.4;-11.64;0.24;32.06;35.92;77.54;5.0;48.624;39.46946;-0.339482;17.6;NaN;4.46;1.9;187.0;17 / 34;18311;2021-10-20 19:32:41:068
8.2241;-9.177;0.6341;-7.1491;-6.675;0.7039;-1.1644;2.4501;0.5466;0.52;-0.0192;0.8356;30.0;-38.64;-10.09;-0.11;11.32;42.9;84.38;5.0;48.624;39.46946;-0.339482;17.6;NaN;4.46;1.9;187.0;17 / 34;18362;2021-10-20 19:32:41:119
8.825;-8.284;2.52;-7.4986;-6.2584;0.8811;-1.1644;2.4501;0.5466;0.0623;-0.1159;0.5002;53.0;-38.64;-10.09;-0.11;11.32;42.9;84.38;5.0;43.359;39.469448;-0.33949;17.6;NaN;6.23;1.8;199.55;17 / 34;18410;2021-10-20 19:32:41:167
12.48;-3.147;3.561;-2.3128;-9.165;2.6097;-3.0734;-0.8862;-2.3269;0.4785;-0.0704;-0.5268;53.0;-38.1;-6.54;-1.01;11.32;42.9;84.38;5.0;43.359;39.469448;-0.33949;17.6;NaN;6.23;1.8;199.55;17 / 34;18460;2021-10-20 19:32:41:217
8.904;-5.249;-1.18;-4.9512;-8.3941;-1.1061;-3.1378;-2.1076;1.4403;0.4785;-0.0704;-0.5268;53.0;-37.44;-2.46;-2.81;350.41;58.85;102.59;5.0;43.359;39.469448;-0.33949;17.6;NaN;6.23;1.8;199.55;17 / 34;18510;2021-10-20 19:32:41:267
7.4801;-4.784;-1.407;-5.2194;-8.1642;-1.5323;0.3709;-0.4992;2.9262;0.2496;-0.1981;-1.2145;53.0;-37.44;-2.46;-2.81;350.41;58.85;102.59;5.0;43.359;39.469448;-0.33949;17.6;NaN;6.23;1.8;199.55;17 / 34;18560;2021-10-20 19:32:41:317
7.4801;-4.784;-1.407;-5.2194;-8.1642;-1.5323;0.3709;-0.4992;2.9262;0.2496;-0.1981;-1.2145;53.0;-37.26;-0.96;-3.71;347.59;56.33;106.36;0.0;43.359;39.469448;-0.33949;17.6;NaN;6.23;1.8;199.55;17 / 34;18610;2021-10-20 19:32:41:367
7.2311;-4.0759;-0.6551;-4.8028;-8.5138;-0.7709;0.8427;-1.4739;1.3018;-1.8085;0.0252;-0.7039;53.0;-37.14;-1.31;-5.46;347.59;56.33;106.36;0.0;43.359;39.469448;-0.33949;17.6;NaN;6.23;1.8;199.55;17 / 34;18661;2021-10-20 19:32:41:418
6.587;-5.3539;1.1201;-6.1387;-7.5417;1.2785;0.8427;-1.4739;1.3018;-1.273;0.1852;-0.1254;36.0;-37.14;-1.31;-5.46;347.59;56.33;106.36;0.0;43.057;39.469448;-0.33949;17.6;NaN;6.23;1.8;199.55;17 / 34;18710;2021-10-20 19:32:41:467
8.09;-5.3779;0.555;-5.4205;-8.1546;0.5507;1.2187;0.094;-1.4505;-1.273;0.1852;-0.1254;36.0;-36.6;-0.96;-8.04;21.71;56.25;84.2;0.0;43.057;39.469448;-0.33949;17.6;NaN;6.23;1.8;199.55;17 / 34;18760;2021-10-20 19:32:41:517
9.588;-6.35;-0.763;-5.4061;-8.1546;-0.6512;-1.1157;0.1441;0.8083;-0.3084;0.3827;0.0;36.0;-36.6;-0.96;-8.04;21.71;56.25;84.2;0.0;43.057;39.469448;-0.33949;17.6;NaN;6.23;1.8;199.55;17 / 34;18810;2021-10-20 19:32:41:567
11.2901;-7.4839;-0.0431;-5.4205;-8.1738;-0.0287;-1.1157;0.1441;0.8083;-0.8452;0.4839;0.0089;36.0;-35.64;0.79;-9.9;10.19;56.27;96.87;0.0;43.057;39.469448;-0.33949;17.6;NaN;6.23;1.8;199.55;17 / 34;18861;2021-10-20 19:32:41:618
12.09;-8.435;0.09;-5.612;-8.0445;0.0527;-3.1761;1.9563;0.269;-0.8452;0.4839;0.0089;36.0;-34.56;2.81;-10.86;19.3;56.45;90.3;0.0;43.057;39.469448;-0.33949;17.6;NaN;6.23;1.8;199.55;17 / 34;18911;2021-10-20 19:32:41:668
12.09;-8.435;0.09;-5.612;-8.0445;0.0527;-3.9935;2.8855;-0.0078;-1.1591;0.5005;0.0708;36.0;-34.56;2.81;-10.86;19.3;56.45;90.3;0.0;43.057;39.469448;-0.33949;17.6;NaN;6.23;1.8;199.55;17 / 34;18961;2021-10-20 19:32:41:718
14.471;-1.922;3.5921;-1.2546;-9.4427;2.3367;-3.6574;-1.6854;-2.6218;-0.7991;0.8734;-0.7942;36.0;-33.9;4.61;-10.74;77.95;74.31;28.23;0.0;43.057;39.469448;-0.33949;17.6;NaN;6.23;1.8;199.55;17 / 34;19011;2021-10-20 19:32:41:768
7.875;-7.113;0.452;-6.5649;-7.2736;0.4166;-3.6574;-1.6854;-2.6218;-0.7991;0.8734;-0.7942;18.0;-33.6;4.01;-10.44;77.95;74.31;28.23;5.0;46.892;39.469448;-0.33949;17.6;NaN;6.23;1.8;199.55;17 / 34;19061;2021-10-20 19:32:41:818
8.0111;-6.35;-0.15;-6.0908;-7.6854;-0.1437;1.6554;2.6884;0.3293;-0.2237;0.6293;-0.4561;18.0;-33.6;4.01;-10.44;77.95;74.31;28.23;5.0;46.892;39.469448;-0.33949;17.6;NaN;6.23;1.8;199.55;17 / 34;19111;2021-10-20 19:32:41:868
7.994;-5.756;1.586;-5.6599;-7.8578;1.5562;-0.3356;0.8263;-0.339;-0.2237;0.6293;-0.4561;18.0;-33.84;0.41;-10.31;18.92;51.59;91.35;5.0;46.892;39.469448;-0.33949;17.6;NaN;6.23;1.8;199.55;17 / 34;19160;2021-10-20 19:32:41:917
5.799;-6.1661;1.596;-7.0198;-6.6032;1.8196;1.9807;0.8151;-1.0701;-0.0096;0.0028;0.7106;18.0;-33.84;0.41;-10.31;18.92;51.59;91.35;5.0;46.892;39.469448;-0.33949;17.6;NaN;6.23;1.8;199.55;17 / 34;19211;2021-10-20 19:32:41:968
5.799;-6.1661;1.596;-7.0198;-6.6032;1.8196;1.9807;0.8151;-1.0701;0.6667;-0.1225;0.6127;18.0;-34.39;-3.36;-10.26;44.94;42.32;75.47;5.0;46.892;39.469448;-0.33949;17.6;NaN;6.23;1.8;199.55;17 / 34;19261;2021-10-20 19:32:42:018
4.7321;-6.137;1.89;-7.5465;-5.8179;2.3128;3.1298;0.788;-1.0472;0.6667;-0.1225;0.6127;18.0;-33.84;-6.66;-10.5;58.61;36.39;72.96;5.0;46.892;39.469448;-0.33949;17.6;NaN;6.23;1.8;199.55;17 / 34;19310;2021-10-20 19:32:42:067
5.055;-6.924;0.8231;-7.8865;-5.7604;0.929;2.7973;0.211;-0.2944;0.9094;-0.1332;1.1216;43.0;-33.84;-6.66;-10.5;58.61;36.39;72.96;5.0;47.833;39.469448;-0.33949;17.6;NaN;6.23;1.8;199.55;17 / 34;19360;2021-10-20 19:32:42:117
6.594;-8.94;0.387;-7.8243;-5.9089;0.2586;0.557;2.3318;0.8253;0.2025;-0.2094;1.0948;43.0;-33.19;-9.06;-11.64;54.79;35.96;83.28;5.0;47.833;39.469437;-0.339492;17.5;NaN;4.98;2.0;193.18;16 / 34;19410;2021-10-20 19:32:42:167
6.683;-10.3301;1.926;-7.8243;-5.9089;0.2586;0.557;2.3318;0.8253;0.2025;-0.2094;1.0948;43.0;-32.94;-9.06;-12.66;48.57;37.05;88.11;5.0;47.833;39.469437;-0.339492;17.5;NaN;4.98;2.0;193.18;16 / 34;19461;2021-10-20 19:32:42:218
11.36;-4.026;4.7201;-7.0581;-6.1723;2.8683;0.1157;3.3334;-0.8252;-0.0388;-0.0709;0.7385;43.0;-32.94;-9.06;-12.66;48.57;37.05;88.11;5.0;47.833;39.469437;-0.339492;17.5;NaN;4.98;2.0;193.18;16 / 34;19510;2021-10-20 19:32:42:267
11.36;-4.026;4.7201;-2.1739;-9.1698;2.7054;-4.7443;-3.1268;-3.5448;-0.0388;-0.0709;0.7385;43.0;-32.7;-5.81;-13.56;48.57;37.05;88.11;5.0;47.833;39.469437;-0.339492;17.5;NaN;4.98;2.0;193.18;16 / 34;19561;2021-10-20 19:32:42:318
9.995;-4.607;-0.5119;-5.5258;-7.9535;-1.5467;-1.1908;-0.8816;3.0703;0.3795;0.2735;-0.8162;43.0;-32.7;-5.81;-13.56;48.57;37.05;88.11;5.0;47.833;39.469437;-0.339492;17.5;NaN;4.98;2.0;193.18;16 / 34;19611;2021-10-20 19:32:42:368
6.654;-5.811;-1.7299;-5.8131;-7.762;-1.4557;-1.1908;-0.8816;3.0703;-0.8715;0.2768;-1.4079;43.0;-32.76;-4.09;-14.04;9.82;54.19;105.64;0.0;46.447;39.469437;-0.339492;17.5;NaN;4.98;2.0;193.18;16 / 34;19661;2021-10-20 19:32:42:418
7.8791;-3.87;-0.1669;-5.8131;-7.762;-1.4557;0.7329;-0.9852;2.5341;-0.8715;0.2768;-1.4079;46.0;-32.64;-4.01;-14.4;12.27;52.33;104.06;0.0;46.447;39.469437;-0.339492;17.5;NaN;4.98;2.0;193.18;16 / 34;19711;2021-10-20 19:32:42:468
7.2191;-4.7149;0.7301;-5.0087;-8.4228;0.3496;0.5901;-1.5397;0.1947;-1.5892;-0.0896;-0.4;46.0;-32.64;-4.01;-14.4;12.27;52.33;104.06;0.0;46.447;39.469437;-0.339492;17.5;NaN;4.98;2.0;193.18;16 / 34;19761;2021-10-20 19:32:42:518
8.454;-4.806;0.2411;-5.1811;-8.2839;0.8475;0.5901;-1.5397;0.1947;-0.5995;0.2974;-0.4473;46.0;-31.69;-3.24;-16.26;12.27;52.33;104.06;0.0;46.447;39.469437;-0.339492;17.5;NaN;4.98;2.0;193.18;16 / 34;19811;2021-10-20 19:32:42:568
8.454;-4.806;0.2411;-4.8842;-8.4851;-0.5794;-0.4248;-0.844;0.0161;-0.5995;0.2974;-0.4473;46.0;-30.66;-2.81;-17.76;27.81;59.9;96.77;0.0;46.447;39.469437;-0.339492;17.5;NaN;4.98;2.0;193.18;16 / 34;19861;2021-10-20 19:32:42:618
9.1361;-5.871;-0.636;-4.8842;-8.4851;-0.5794;-0.9899;0.4002;0.8669;-0.6011;0.3703;-0.2938;46.0;-30.66;-2.81;-17.76;27.81;59.9;96.77;0.0;46.447;39.469437;-0.339492;17.5;NaN;4.98;2.0;193.18;16 / 34;19910;2021-10-20 19:32:42:667
10.721;-7.973;-0.557;-5.8466;-7.8626;-0.3974;-2.5528;2.5408;0.7101;-0.7894;0.2184;0.0392;46.0;-30.49;-2.16;-18.71;27.81;59.9;96.77;0.0;46.447;39.469437;-0.339492;17.5;NaN;4.98;2.0;193.18;16 / 34;19961;2021-10-20 19:32:42:718
13.677;-9.318;0.6191;-5.5162;-8.102;0.3639;-2.5528;2.5408;0.7101;-0.7894;0.2184;0.0392;46.0;-30.49;-2.16;-18.71;27.81;59.9;96.77;0.0;52.881;39.469437;-0.339492;17.5;NaN;4.98;2.0;193.18;16 / 34;20011;2021-10-20 19:32:42:768
15.893;-0.4999;4.088;-0.2921;-9.4954;2.4421;-6.0238;0.9688;-1.8125;-0.5313;0.4958;-0.2535;17.0;-30.3;-0.96;-19.5;42.15;55.69;86.23;0.0;52.881;39.469437;-0.339492;17.5;NaN;4.98;2.0;193.18;16 / 34;20061;2021-10-20 19:32:42:818
7.9751;-6.8569;0.284;-6.3925;-7.4316;0.2538;-2.1109;-0.5531;-1.2883;-0.5313;0.4958;-0.2535;17.0;-30.96;-1.31;-20.16;115.64;75.48;6.82;0.0;52.881;39.469437;-0.339492;17.5;NaN;4.98;2.0;193.18;16 / 34;20111;2021-10-20 19:32:42:868
4.4951;-8.298;0.131;-8.6239;-4.6735;0.1293;4.013;4.124;0.7229;-0.5354;0.8488;-0.8748;17.0;-30.96;-1.31;-20.16;115.64;75.48;6.82;0.0;52.881;39.469437;-0.339492;17.5;NaN;4.98;2.0;193.18;16 / 34;20160;2021-10-20 19:32:42:917
4.4951;-8.298;0.131;-8.6239;-4.6735;0.1293;4.013;4.124;0.7229;0.2366;0.1944;0.4418;17.0;-31.56;-5.51;-21.11;65.43;28.45;89.14;0.0;52.881;39.469437;-0.339492;17.5;NaN;4.98;2.0;193.18;16 / 34;20210;2021-10-20 19:32:42:967
7.7531;-5.2661;1.469;-5.2289;-8.1068;1.7669;0.6525;-0.1652;-0.9948;0.2366;0.1944;0.4418;17.0;-32.29;-11.21;-20.34;65.06;55.75;71.33;5.0;52.881;39.469437;-0.339492;17.5;NaN;4.98;2.0;193.18;16 / 34;20261;2021-10-20 19:32:43:018
6.5291;-5.3561;1.8791;-6.5745;-7.0006;1.9968;1.5438;-0.1805;-1.1871;0.4909;-0.3459;1.3486;17.0;-32.29;-11.21;-20.34;65.06;55.75;71.33;5.0;50.324;39.469437;-0.339492;17.5;NaN;4.98;2.0;193.18;16 / 34;20310;2021-10-20 19:32:43:067
5.589;-5.7349;1.62;-6.9192;-6.6655;1.9728;2.2406;-0.1117;-0.7314;0.9698;-0.1338;0.4656;43.0;-33.6;-16.01;-18.06;65.06;55.75;71.33;5.0;50.324;39.469437;-0.339492;17.5;NaN;4.98;2.0;193.18;18 / 34;20360;2021-10-20 19:32:43:117
5.445;-6.091;1.2251;-6.9192;-6.6655;1.9728;2.2406;-0.1117;-0.7314;0.9698;-0.1338;0.4656;43.0;-33.6;-16.01;-18.06;65.06;55.75;71.33;5.0;50.324;39.469425;-0.339495;17.3;NaN;4.06;2.0;198.73;18 / 34;20410;2021-10-20 19:32:43:167
5.9291;-8.0921;0.6101;-7.7859;-5.9185;0.7135;2.0086;0.6902;0.2556;0.9085;-0.3347;0.718;43.0;-34.5;-19.91;-15.3;78.68;42.81;74.09;5.0;50.324;39.469425;-0.339495;17.3;NaN;4.06;2.0;198.73;18 / 34;20461;2021-10-20 19:32:43:218
5.9291;-8.0921;0.6101;-7.2784;-6.3973;1.4988;2.0086;0.6902;0.2556;0.9085;-0.3347;0.718;43.0;-34.86;-22.26;-13.31;78.62;40.72;78.36;5.0;50.324;39.469425;-0.339495;17.3;NaN;4.06;2.0;198.73;18 / 34;20510;2021-10-20 19:32:43:267
7.0631;-9.148;1.5311;-7.604;-5.9855;1.5993;0.0113;1.6731;-0.4643;0.6793;-0.6491;0.8438;43.0;-34.86;-22.26;-13.31;78.62;40.72;78.36;5.0;50.324;39.469425;-0.339495;17.3;NaN;4.06;2.0;198.73;18 / 34;20560;2021-10-20 19:32:43:317
8.1551;-7.3699;2.649;-7.604;-5.9855;1.5993;-0.1104;2.1113;-0.7051;0.604;-0.6006;0.6733;43.0;-35.29;-21.66;-13.56;85.31;37.61;78.12;5.0;50.324;39.469425;-0.339495;17.3;NaN;4.06;2.0;198.73;18 / 34;20610;2021-10-20 19:32:43:367
11.25;-4.839;3.482;-3.7302;-8.667;2.6767;-4.3772;-2.0385;-2.1065;0.604;-0.6006;0.6733;43.0;-36.36;-18.24;-14.4;72.49;62.09;54.34;5.0;47.115;39.469425;-0.339495;17.3;NaN;4.06;2.0;198.73;18 / 34;20660;2021-10-20 19:32:43:417
9.7421;-5.5099;-0.299;-4.8219;-8.5377;-0.249;-4.3772;-2.0385;-2.1065;0.8524;-0.2321;-0.4632;42.0;-36.36;-18.24;-14.4;72.49;62.09;54.34;5.0;47.115;39.469425;-0.339495;17.3;NaN;4.06;2.0;198.73;18 / 34;20710;2021-10-20 19:32:43:467
8.0711;-4.533;-0.584;-4.7884;-8.5377;-0.6033;-1.8621;-1.096;2.2951;0.1444;-0.3065;-1.0886;42.0;-37.2;-15.41;-13.86;25.42;60.51;92.96;5.0;47.115;39.469425;-0.339495;17.3;NaN;4.06;2.0;198.73;18 / 34;20760;2021-10-20 19:32:43:517
8.0711;-4.533;-0.584;-4.7884;-8.5377;-0.6033;-1.8621;-1.096;2.2951;0.1444;-0.3065;-1.0886;42.0;-37.2;-15.41;-13.86;25.42;60.51;92.96;5.0;47.115;39.469425;-0.339495;17.3;NaN;4.06;2.0;198.73;18 / 34;20810;2021-10-20 19:32:43:567
7.4411;-3.8269;-0.744;-5.0709;-8.3558;-0.7901;-0.0446;-2.1113;1.9844;-0.8125;-0.5061;-0.7117;42.0;-37.56;-14.04;-12.24;25.42;60.51;92.96;5.0;47.115;39.469425;-0.339495;17.3;NaN;4.06;2.0;198.73;18 / 34;20861;2021-10-20 19:32:43:618
6.8051;-5.2181;0.162;-5.8514;-7.8578;0.4932;1.2859;-0.7457;0.9994;-0.8125;-0.5061;-0.7117;42.0;-36.54;-13.09;-12.3;35.73;53.23;85.18;0.0;47.115;39.469425;-0.339495;17.3;NaN;4.06;2.0;198.73;18 / 34;20911;2021-10-20 19:32:43:668
8.0681;-5.285;0.1931;-5.5545;-8.0828;-0.0287;0.1221;-0.1093;0.084;-0.5204;-0.3765;-0.326;42.0;-36.54;-13.09;-12.3;35.73;53.23;85.18;0.0;47.973;39.469425;-0.339495;17.3;NaN;4.06;2.0;198.73;18 / 34;20961;2021-10-20 19:32:43:718
9.366;-6.999;-0.162;-5.5545;-8.0828;-0.0287;0.1221;-0.1093;0.084;0.0685;-0.1735;0.1257;42.0;-35.64;-12.41;-12.84;29.2;55.5;90.3;0.0;47.973;39.469425;-0.339495;17.3;NaN;4.06;2.0;198.73;18 / 34;21010;2021-10-20 19:32:43:767
12.2171;-8.4949;-0.069;-5.8993;-7.8338;-0.1101;-1.1986;1.5493;0.3436;0.0685;-0.1735;0.1257;25.0;-35.7;-10.86;-11.81;26.91;53.01;91.07;0.0;47.973;39.469425;-0.339495;17.3;NaN;4.06;2.0;198.73;18 / 34;21061;2021-10-20 19:32:43:818
11.958;-8.303;0.2321;-6.0382;-7.7237;-0.1915;-4.0875;2.9837;0.2278;-0.0202;-0.0782;0.0921;25.0;-35.7;-10.86;-11.81;26.91;53.01;91.07;0.0;47.973;39.469425;-0.339495;17.3;NaN;4.06;2.0;198.73;18 / 34;21110;2021-10-20 19:32:43:867
11.958;-8.303;0.2321;-1.9632;-9.2177;2.7246;-4.7833;-0.436;-2.3224;0.0072;0.0265;0.007;25.0;-35.7;-8.34;-10.56;22.59;51.97;91.82;0.0;47.973;39.469425;-0.339495;17.3;NaN;4.06;2.0;198.73;18 / 34;21160;2021-10-20 19:32:43:917
12.9041;-2.218;4.004;-4.5538;-8.667;0.5459;-4.7833;-0.436;-2.3224;0.0072;0.0265;0.007;25.0;-35.7;-8.34;-10.56;22.59;51.97;91.82;0.0;47.973;39.469425;-0.339495;17.3;NaN;4.06;2.0;198.73;18 / 34;21210;2021-10-20 19:32:43:967
8.0951;-6.735;-0.313;-4.5538;-8.667;0.5459;-1.0603;-0.3524;-0.185;0.5665;0.2028;-0.6267;25.0;-35.1;-6.66;-7.91;22.59;51.97;91.82;0.0;52.232;39.469425;-0.339495;17.3;NaN;4.06;2.0;198.73;18 / 34;21260;2021-10-20 19:32:44:017
6.075;-7.791;-0.22;-7.7955;-5.9472;-0.1149;2.0639;3.3237;0.7881;0.7608;-0.1635;0.037;25.0;-33.6;-8.16;-4.61;17.46;37.34;90.84;5.0;52.232;39.469425;-0.339495;17.3;NaN;4.06;2.0;198.73;18 / 34;21311;2021-10-20 19:32:44:068
7.7291;-5.6411;1.869;-5.6743;-7.7716;1.8771;0.4975;0.6814;-0.7083;0.7608;-0.1635;0.037;27.0;-33.6;-8.16;-4.61;17.46;37.34;90.84;5.0;52.232;39.469425;-0.339495;17.3;NaN;4.06;2.0;198.73;18 / 34;21361;2021-10-20 19:32:44:118
5.732;-6.075;1.536;-7.0246;-6.6128;1.7621;0.4975;0.6814;-0.7083;0.553;-0.4951;0.9923;27.0;-31.39;-10.91;-2.64;38.4;52.44;71.7;5.0;52.232;39.469418;-0.339498;17.2;NaN;4.05;2.0;190.22;18 / 34;21411;2021-10-20 19:32:44:168
5.732;-6.075;1.536;-7.0246;-6.6128;1.7621;2.1943;0.3196;-0.8889;0.553;-0.4951;0.9923;27.0;-28.74;-12.71;-2.04;38.4;52.44;71.7;5.0;52.232;39.469418;-0.339498;17.2;NaN;4.05;2.0;190.22;18 / 34;21460;2021-10-20 19:32:44:217
5.009;-6.125;1.9241;-7.3789;-6.0334;2.3176;2.6873;0.0877;-1.0475;1.0792;-0.2643;0.6597;27.0;-28.74;-12.71;-2.04;38.4;52.44;71.7;5.0;52.232;39.469418;-0.339498;17.2;NaN;4.05;2.0;190.22;18 / 34;21511;2021-10-20 19:32:44:268
4.923;-6.867;1.4;-7.8673;-5.6359;1.5897;2.6873;0.0877;-1.0475;0.7921;-0.0979;0.9632;27.0;-26.7;-14.21;-2.1;64.26;35.08;78.58;5.0;52.232;39.469418;-0.339498;17.2;NaN;4.05;2.0;190.22;18 / 34;21561;2021-10-20 19:32:44:318
5.541;-8.461;1.01;-8.169;-5.3391;0.972;2.1886;0.9836;0.127;0.7921;-0.0979;0.9632;27.0;-26.7;-14.21;-2.1;64.26;35.08;78.58;5.0;51.337;39.469418;-0.339498;17.2;NaN;4.05;2.0;190.22;18 / 34;21610;2021-10-20 19:32:44:367
7.338;-10.7899;0.816;-8.0972;-5.5019;0.6033;0.3493;1.9755;0.1053;0.2344;-0.1253;0.9595;27.0;-25.44;-14.76;-3.11;82.9;32.98;83.21;5.0;51.337;39.469418;-0.339498;17.2;NaN;4.05;2.0;190.22;18 / 34;21660;2021-10-20 19:32:44:417
8.9951;-6.321;4.581;-5.205;-7.4077;3.7685;-0.9233;1.4073;-2.1796;0.0217;-0.0631;0.6486;39.0;-25.39;-13.39;-5.1;82.9;32.98;83.21;5.0;51.337;39.469418;-0.339498;17.2;NaN;4.05;2.0;190.22;18 / 34;21710;2021-10-20 19:32:44:467
8.9951;-6.321;4.581;-5.205;-7.4077;3.7685;-0.9233;1.4073;-2.1796;0.0217;-0.0631;0.6486;39.0;-25.39;-13.39;-5.1;82.9;32.98;83.21;5.0;51.337;39.469418;-0.339498;17.2;NaN;4.05;2.0;190.22;18 / 34;21760;2021-10-20 19:32:44:517
12.116;-3.882;1.4501;-2.9736;-9.2799;1.1061;-6.3438;-3.8438;-2.4054;0.2882;0.2703;-0.8642;39.0;-25.99;-10.09;-6.41;39.46;71.13;69.6;5.0;51.337;39.469418;-0.339498;17.2;NaN;4.05;2.0;190.22;18 / 34;21810;2021-10-20 19:32:44:567
7.4561;-6.3259;-1.172;-6.2967;-7.4268;-1.1684;-1.859;-0.6475;2.6084;0.2882;0.2703;-0.8642;39.0;-26.04;-7.99;-6.71;39.46;71.13;69.6;5.0;51.337;39.469418;-0.339498;17.2;NaN;4.05;2.0;190.22;18 / 34;21860;2021-10-20 19:32:44:617
8.313;-3.7841;-1.5431;-3.9983;-8.8059;-1.6328;-0.1757;-1.7146;2.9819;-0.4943;0.0778;-1.4054;39.0;-26.04;-7.99;-6.71;39.46;71.13;69.6;5.0;53.226;39.469418;-0.339498;17.2;NaN;4.05;2.0;190.22;18 / 34;21910;2021-10-20 19:32:44:667
7.037;-4.83;-0.1931;-3.9983;-8.8059;-1.6328;-0.1757;-1.7146;2.9819;-1.6211;-0.2265;-0.6132;39.0;-25.8;-7.69;-7.01;350.7;63.87;112.21;0.0;53.226;39.469418;-0.339498;17.2;NaN;4.05;2.0;190.22;18 / 34;21960;2021-10-20 19:32:44:717
7.6811;-5.28;1.22;-5.7892;-7.8913;0.6129;0.7984;-1.0549;0.8096;-1.6211;-0.2265;-0.6132;39.0;-25.8;-7.69;-7.01;350.7;63.87;112.21;0.0;53.226;39.469418;-0.339498;17.2;NaN;4.05;2.0;190.22;18 / 34;22010;2021-10-20 19:32:44:767
8.3081;-5.4911;-0.162;-5.0805;-8.351;0.7901;0.3002;-0.4409;-0.9945;-0.8001;0.0558;-0.4217;38.0;-25.56;-7.39;-8.1;33.8;53.58;83.96;0.0;53.226;39.469418;-0.339498;17.2;NaN;4.05;2.0;190.22;18 / 34;22060;2021-10-20 19:32:44:817
8.3081;-5.4911;-0.162;-5.7604;-7.9344;-0.2729;-0.2143;-0.0649;0.3244;-0.2618;0.2732;-0.1099;38.0;-25.26;-7.01;-9.6;28.13;53.99;92.71;0.0;53.226;39.469418;-0.339498;17.2;NaN;4.05;2.0;190.22;18 / 34;22110;2021-10-20 19:32:44:867
9.5021;-7.472;-0.485;-6.0908;-7.6423;-0.8523;-2.8177;2.5069;1.2596;-0.2618;0.2732;-0.1099;38.0;-25.26;-7.01;-9.6;28.13;53.99;92.71;0.0;53.226;39.469418;-0.339498;17.2;NaN;4.05;2.0;190.22;18 / 34;22160;2021-10-20 19:32:44:917
12.4421;-10.2919;-0.852;-6.0908;-7.6423;-0.8523;-2.8177;2.5069;1.2596;-0.6773;0.1724;0.106;38.0;-25.5;-6.54;-9.96;28.13;53.99;92.71;0.0;55.196;39.469418;-0.339498;17.2;NaN;4.05;2.0;190.22;18 / 34;22211;2021-10-20 19:32:44:968
14.474;-2.5511;2.099;-3.7254;-9.0405;0.8045;-5.0014;-0.2777;-1.1527;-0.484;0.2905;-0.2673;38.0;-26.16;-5.89;-9.36;36.45;67.14;77.81;0.0;55.196;39.469418;-0.339498;17.2;NaN;4.05;2.0;190.22;18 / 34;22260;2021-10-20 19:32:45:017
10.563;-5.187;1.16;-1.7861;-9.4523;1.9106;-5.2112;-2.8375;-2.6495;-0.484;0.2905;-0.2673;38.0;-26.16;-5.89;-9.36;36.45;67.14;77.81;0.0;55.196;39.469418;-0.339498;17.2;NaN;4.05;2.0;190.22;18 / 34;22310;2021-10-20 19:32:45:067
5.8451;-8.674;0.579;-7.7955;-5.928;0.4836;-5.2112;-2.8375;-2.6495;-0.0118;0.4663;-0.7792;28.0;-26.7;-6.06;-9.06;69.19;74.53;43.07;5.0;55.196;39.469418;-0.339498;17.2;NaN;4.05;2.0;190.22;18 / 34;22360;2021-10-20 19:32:45:117
5.8451;-8.674;0.579;-6.2153;-7.3454;1.901;2.6325;3.7442;-0.1938;-0.0118;0.4663;-0.7792;28.0;-26.7;-6.06;-9.06;69.19;74.53;43.07;5.0;55.196;39.469402;-0.3395;17.1;NaN;4.15;2.1;168.47;19 / 34;22410;2021-10-20 19:32:45:167
8.054;-5.9171;2.13;-6.2153;-7.3454;1.901;0.4315;0.4345;-1.5714;0.5596;0.1533;0.2996;28.0;-27.06;-8.94;-8.64;55.36;48.5;72.99;5.0;55.196;39.469402;-0.3395;17.1;NaN;4.15;2.1;168.47;19 / 34;22460;2021-10-20 19:32:45:217
5.943;-6.1541;1.575;-6.9336;-6.7038;1.7669;0.4315;0.4345;-1.5714;0.6739;-0.0421;1.0421;28.0;-27.84;-13.31;-7.61;62.26;43.13;75.7;5.0;55.196;39.469402;-0.3395;17.1;NaN;4.15;2.1;168.47;19 / 34;22510;2021-10-20 19:32:45:267
5.225;-6.041;1.632;-7.2688;-6.2872;1.9537;2.3329;0.4582;-0.5286;0.6739;-0.0421;1.0421;28.0;-27.84;-13.31;-7.61;62.26;43.13;75.7;5.0;52.796;39.469402;-0.3395;17.1;NaN;4.15;2.1;168.47;19 / 34;22560;2021-10-20 19:32:45:317
4.44;-6.1871;1.412;-7.8434;-5.6168;1.7813;2.8069;0.0643;-0.4755;0.7451;-0.0228;0.6397;28.0;-28.09;-17.46;-5.94;62.26;43.13;75.7;5.0;52.796;39.469402;-0.3395;17.1;NaN;4.15;2.1;168.47;19 / 34;22610;2021-10-20 19:32:45:367
5.0621;-8.243;0.615;-8.3414;-5.114;0.6225;2.2111;1.7896;0.7248;0.5363;-0.1448;1.0055;28.0;-28.26;-20.51;-4.74;101.32;34.93;77.2;5.0;52.796;39.469402;-0.3395;17.1;NaN;4.15;2.1;168.47;19 / 34;22661;2021-10-20 19:32:45:418
5.0621;-8.243;0.615;-8.3414;-5.114;0.6225;2.2111;1.7896;0.7248;0.5363;-0.1448;1.0055;73.0;-28.26;-20.51;-4.74;101.32;34.93;77.2;5.0;52.796;39.469402;-0.3395;17.1;NaN;4.15;2.1;168.47;19 / 34;22711;2021-10-20 19:32:45:468
7.817;-10.649;0.471;-7.9009;-5.7988;0.3448;-0.9123;3.7834;0.8369;0.1823;-0.4477;0.9758;73.0;-28.8;-20.51;-4.74;101.32;34.93;77.2;5.0;52.796;39.469402;-0.3395;17.1;NaN;4.15;2.1;168.47;19 / 34;22761;2021-10-20 19:32:45:518
7.6541;-8.3051;4.3151;-6.7373;-6.2058;3.4955;-1.0713;1.1156;-3.0923;0.1823;-0.4477;0.9758;73.0;-28.8;-20.51;-4.74;101.32;34.93;77.2;5.0;52.796;39.469402;-0.3395;17.1;NaN;4.15;2.1;168.47;19 / 34;22811;2021-10-20 19:32:45:568
13.1051;-2.182;3.1901;-1.5658;-9.4092;2.2889;-6.4941;-4.9227;-1.7524;0.4342;-0.179;0.397;73.0;-30.19;-17.46;-5.76;84.2;39.27;62.58;5.0;50.142;39.469402;-0.3395;17.1;NaN;4.15;2.1;168.47;19 / 34;22860;2021-10-20 19:32:45:617
8.289;-6.264;-1.943;-5.8083;-7.695;-1.7957;-6.4941;-4.9227;-1.7524;0.6735;-0.1225;-1.1272;73.0;-32.16;-13.39;-6.71;351.05;51.69;107.18;5.0;50.142;39.469402;-0.3395;17.1;NaN;4.15;2.1;168.47;19 / 34;22910;2021-10-20 19:32:45:667
8.0111;-5.3591;-1.864;-5.3534;-8.0062;-1.8531;-1.2093;-0.3396;3.5814;0.6735;-0.1225;-1.1272;73.0;-32.16;-13.39;-6.71;351.05;51.69;107.18;0.0;50.142;39.469402;-0.3395;17.1;NaN;4.15;2.1;168.47;19 / 34;22960;2021-10-20 19:32:45:717
8.0111;-5.3591;-1.864;-5.3534;-8.0062;-1.8531;-0.6058;-1.3574;1.98;-0.2582;-0.402;-1.3978;73.0;-33.06;-11.76;-6.0;351.05;51.69;107.18;0.0;50.142;39.469402;-0.3395;17.1;NaN;4.15;2.1;168.47;19 / 34;23010;2021-10-20 19:32:45:767
7.446;-4.179;-0.019;-5.1236;-8.3606;0.1628;-0.6058;-1.3574;1.98;-1.0264;-0.4785;-0.2101;71.0;-32.89;-11.94;-6.11;18.0;58.49;88.18;0.0;50.142;39.469402;-0.3395;17.1;NaN;4.15;2.1;168.47;19 / 34;23061;2021-10-20 19:32:45:818
6.819;-5.158;0.909;-5.9472;-7.7141;1.1684;1.1174;-1.0916;-0.1482;-1.0264;-0.4785;-0.2101;71.0;-32.89;-11.94;-6.11;18.0;58.49;88.18;0.0;50.142;39.469402;-0.3395;17.1;NaN;4.15;2.1;168.47;19 / 34;23110;2021-10-20 19:32:45:867
8.2931;-4.816;0.011;-4.8794;-8.4946;-0.4405;0.3801;-0.5305;-0.4187;0.0358;-0.0124;-0.2537;71.0;-33.06;-10.86;-8.21;39.15;51.84;78.89;0.0;50.142;39.469402;-0.3395;17.1;NaN;4.15;2.1;168.47;19 / 34;23161;2021-10-20 19:32:45:918
9.122;-6.3071;-0.653;-4.8794;-8.4946;-0.4405;0.3801;-0.5305;-0.4187;0.0358;-0.0124;-0.2537;71.0;-33.06;-10.86;-8.21;39.15;51.84;78.89;0.0;49.277;39.469402;-0.3395;17.1;NaN;4.15;2.1;168.47;19 / 34;23211;2021-10-20 19:32:45:968
11.343;-7.887;0.0191;-5.8945;-7.829;-0.3974;-1.014;0.7799;0.8698;-0.1709;0.0664;-0.0774;71.0;-34.2;-8.76;-9.11;16.82;52.96;93.86;0.0;49.277;39.469402;-0.3395;17.1;NaN;4.15;2.1;168.47;19 / 34;23260;2021-10-20 19:32:46:017
11.343;-7.887;0.0191;-5.7317;-7.9583;-0.0335;-4.6824;3.3228;0.1252;-0.5459;0.1192;-0.015;71.0;-34.99;-7.01;-9.0;19.86;54.24;90.34;0.0;49.277;39.469402;-0.3395;17.1;NaN;4.15;2.1;168.47;19 / 34;23310;2021-10-20 19:32:46:067
13.394;-8.904;0.3251;-1.968;-9.481;1.5706;-5.207;0.4106;-1.0542;-0.5459;0.1192;-0.015;27.0;-34.99;-7.01;-9.0;19.86;54.24;90.34;0.0;49.277;39.469402;-0.3395;17.1;NaN;4.15;2.1;168.47;19 / 34;23360;2021-10-20 19:32:46:117
14.304;-1.783;3.348;-4.5921;-8.5569;1.3551;-5.207;0.4106;-1.0542;-0.2002;0.261;-0.2919;27.0;-35.76;-5.59;-8.21;19.86;54.24;90.34;0.0;49.277;39.4694;-0.339512;17.1;NaN;4.24;2.1;212.95;19 / 34;23410;2021-10-20 19:32:46:167
7.437;-6.762;0.648;-4.5921;-8.5569;1.3551;-1.0248;-0.1168;-1.2249;0.2896;0.3381;-0.6449;27.0;-37.44;-6.41;-7.5;34.85;60.77;73.56;0.0;49.277;39.4694;-0.339512;17.1;NaN;4.24;2.1;212.95;19 / 34;23461;2021-10-20 19:32:46:218
5.72;-7.729;0.239;-8.3127;-5.1954;0.2873;-1.0248;-0.1168;-1.2249;0.2896;0.3381;-0.6449;27.0;-37.44;-6.41;-7.5;34.85;60.77;73.56;0.0;48.109;39.4694;-0.339512;17.1;NaN;4.24;2.1;212.95;19 / 34;23511;2021-10-20 19:32:46:268
7.8671;-5.1791;1.8521;-5.7844;-7.762;1.5658;2.7657;2.8223;0.3773;0.5589;0.0205;0.4682;27.0;-37.8;-10.74;-5.81;36.73;52.33;74.85;0.0;48.109;39.4694;-0.339512;17.1;NaN;4.24;2.1;212.95;19 / 34;23561;2021-10-20 19:32:46:318
6.213;-5.783;1.917;-5.7174;-7.5848;2.4421;0.413;-0.4201;-1.4286;0.4803;-0.1987;0.9596;27.0;-37.8;-10.74;-5.81;36.73;52.33;74.85;5.0;48.109;39.4694;-0.339512;17.1;NaN;4.24;2.1;212.95;19 / 34;23611;2021-10-20 19:32:46:368
6.213;-5.783;1.917;-7.039;-6.4835;2.1452;0.413;-0.4201;-1.4286;0.4803;-0.1987;0.9596;27.0;-37.39;-14.81;-2.81;47.41;50.66;66.87;5.0;48.109;39.4694;-0.339512;17.1;NaN;4.24;2.1;212.95;19 / 34;23661;2021-10-20 19:32:46:418
5.5961;-6.1271;1.9841;-7.2688;-6.2249;2.15;2.1468;0.3432;-0.8978;0.9356;-0.1273;0.4333;69.0;-36.24;-17.16;-0.36;46.35;41.38;73.05;5.0;48.109;39.4694;-0.339512;17.1;NaN;4.24;2.1;212.95;19 / 34;23711;2021-10-20 19:32:46:468
5.3921;-6.8171;1.6511;-7.2688;-6.2249;2.15;2.211;0.3662;-0.6253;0.9356;-0.1273;0.4333;69.0;-36.24;-17.16;-0.36;46.35;41.38;73.05;5.0;48.109;39.4694;-0.339512;17.1;NaN;4.24;2.1;212.95;19 / 34;23761;2021-10-20 19:32:46:518
6.3;-8.3921;1.041;-7.8865;-5.7174;1.1157;0.9505;1.9467;0.4449;0.7403;-0.1977;0.9159;69.0;-34.44;-19.09;0.66;41.41;35.67;81.95;5.0;46.972;39.4694;-0.339512;17.1;NaN;4.24;2.1;212.95;19 / 34;23810;2021-10-20 19:32:46:567
7.7621;-10.0361;0.9431;-7.5609;-6.201;0.7183;0.9505;1.9467;0.4449;0.2613;-0.3704;0.8213;69.0;-33.79;-19.74;1.39;41.41;35.67;81.95;5.0;46.972;39.4694;-0.339512;17.1;NaN;4.24;2.1;212.95;19 / 34;23860;2021-10-20 19:32:46:617
8.7701;-5.993;4.6811;-5.0709;-7.4077;3.9504;-0.8017;3.2542;0.4932;0.2613;-0.3704;0.8213;69.0;-33.79;-19.74;1.39;41.41;35.67;81.95;5.0;46.972;39.4694;-0.339512;17.1;NaN;4.24;2.1;212.95;19 / 34;23910;2021-10-20 19:32:46:667
8.7701;-5.993;4.6811;-5.0709;-7.4077;3.9504;-2.019;-0.993;-3.2738;0.3664;-0.2216;0.3718;69.0;-34.2;-17.76;0.54;66.06;49.05;52.08;5.0;46.972;39.4694;-0.339512;17.1;NaN;4.24;2.1;212.95;19 / 34;23961;2021-10-20 19:32:46:718
10.058;-4.32;1.146;-3.8499;-8.9639;1.0199;-1.8375;-1.4336;2.2328;0.5728;-0.1536;-0.7096;69.0;-34.2;-17.76;0.54;66.06;49.05;52.08;5.0;46.972;39.4694;-0.339512;17.1;NaN;4.24;2.1;212.95;19 / 34;24011;2021-10-20 19:32:46:768
7.0271;-6.146;-2.34;-6.268;-7.1587;-2.375;-1.8375;-1.4336;2.2328;0.5728;-0.1536;-0.7096;87.0;-34.99;-14.29;-2.1;23.75;66.04;75.16;5.0;46.972;39.4694;-0.339512;17.1;NaN;4.24;2.1;212.95;19 / 34;24060;2021-10-20 19:32:46:817
8.6381;-4.035;-0.203;-4.1468;-8.8825;-0.1963;-0.5417;-1.2035;2.246;-0.5445;-0.4971;-0.9366;87.0;-34.5;-11.89;-2.51;23.75;66.04;75.16;5.0;46.972;39.4694;-0.339512;17.1;NaN;4.24;2.1;212.95;19 / 34;24110;2021-10-20 19:32:46:867
7.592;-4.066;-0.222;-4.6256;-8.6431;-0.249;-0.5417;-1.2035;2.246;-0.5445;-0.4971;-0.9366;87.0;-34.5;-11.89;-2.51;23.75;66.04;75.16;5.0;46.34;39.4694;-0.339512;17.1;NaN;4.24;2.1;212.95;19 / 34;24161;2021-10-20 19:32:46:918
7.604;-4.981;0.567;-5.3582;-8.193;0.6033;0.2365;-1.8214;0.8452;-1.2082;-0.3244;-0.5116;87.0;-34.5;-10.69;-2.51;2.69;61.81;93.08;0.0;46.34;39.4694;-0.339512;17.1;NaN;4.24;2.1;212.95;19 / 34;24211;2021-10-20 19:32:46:968
7.604;-4.981;0.567;-5.3582;-8.193;0.6033;0.4222;-0.6595;-0.235;-0.3783;0.007;-0.5584;87.0;-34.69;-9.06;-3.71;2.69;61.81;93.08;0.0;46.34;39.4694;-0.339512;17.1;NaN;4.24;2.1;212.95;19 / 34;24261;2021-10-20 19:32:47:018
8.813;-5.364;-0.371;-5.0901;-8.3749;-0.3496;-0.6269;-0.0435;0.589;-0.3783;0.007;-0.5584;87.0;-34.69;-9.06;-3.71;2.69;61.81;93.08;0.0;46.34;39.4694;-0.339512;17.1;NaN;4.24;2.1;212.95;19 / 34;24310;2021-10-20 19:32:47:067
9.8831;-7.0939;-0.2171;-5.7126;-7.9679;-0.1628;-1.6508;1.7428;0.3604;-0.294;0.0671;-0.0866;49.0;-33.84;-7.31;-4.01;7.31;54.35;91.63;0.0;46.34;39.4694;-0.339512;17.1;NaN;4.24;2.1;212.95;19 / 34;24360;2021-10-20 19:32:47:117
12.4271;-9.4399;-0.27;-5.9328;-7.8051;-0.1628;-1.6508;1.7428;0.3604;-0.4166;0.0844;0.0987;49.0;-33.84;-7.31;-4.01;7.31;54.35;91.63;0.0;46.34;39.4694;-0.339512;17.1;NaN;4.24;2.1;212.95;19 / 34;24411;2021-10-20 19:32:47:168
13.287;-5.2729;2.2091;-3.5769;-9.0118;1.4988;-4.7991;4.2158;-0.2553;-0.4166;0.0844;0.0987;49.0;-33.54;-5.94;-3.96;7.43;52.75;91.57;0.0;52.603;39.4694;-0.339512;17.1;NaN;4.24;2.1;212.95;19 / 34;24461;2021-10-20 19:32:47:218
11.7311;-3.128;2.6711;-2.4612;-9.256;2.1069;-5.9291;-2.9126;-3.1223;0.1265;0.2086;-0.2622;49.0;-33.49;-4.74;-3.71;7.43;52.75;91.57;0.0;52.603;39.4694;-0.339512;17.1;NaN;4.24;2.1;212.95;19 / 34;24511;2021-10-20 19:32:47:268
6.0941;-8.4709;0.296;-7.9583;-5.7269;0.2682;-0.8683;0.3226;-0.6726;0.6403;0.2244;-0.5713;49.0;-33.49;-4.74;-3.71;7.43;52.75;91.57;0.0;52.603;39.4694;-0.339512;17.1;NaN;4.24;2.1;212.95;19 / 34;24561;2021-10-20 19:32:47:318
6.0941;-8.4709;0.296;-7.9583;-5.7269;0.2682;-0.8683;0.3226;-0.6726;0.6403;0.2244;-0.5713;49.0;-32.29;-5.94;-3.41;16.52;35.72;88.07;5.0;52.603;39.4694;-0.339512;17.1;NaN;4.24;2.1;212.95;19 / 34;24611;2021-10-20 19:32:47:368
6.5651;-6.1391;1.146;-6.6463;-7.106;1.2402;3.3208;2.6128;0.2208;0.2496;0.1218;0.575;49.0;-30.6;-8.89;-3.24;16.52;35.72;88.07;5.0;52.603;39.4694;-0.339512;17.1;NaN;4.24;2.1;212.95;19 / 34;24661;2021-10-20 19:32:47:418
7.046;-5.048;1.4;-5.6359;-7.8769;1.5514;0.7455;-0.2908;-0.5954;0.2496;0.1218;0.575;58.0;-30.6;-8.89;-3.24;29.16;46.43;79.43;5.0;52.603;39.4694;-0.339512;17.1;NaN;4.24;2.1;212.95;19 / 34;24710;2021-10-20 19:32:47:467
5.895;-5.73;1.433;-6.7373;-6.9288;1.6855;0.7455;-0.2908;-0.5954;0.0238;0.0549;1.0258;58.0;-29.7;-11.51;-2.64;29.16;46.43;79.43;5.0;52.603;39.4694;-0.339512;17.1;NaN;4.24;2.1;212.95;19 / 34;24760;2021-10-20 19:32:47:517
5.16;-6.101;2.003;-7.264;-6.1435;2.3894;1.9402;-0.1211;-0.5208;0.307;0.1214;0.3365;58.0;-29.7;-11.51;-2.64;29.16;46.43;79.43;5.0;46.982;39.4694;-0.339512;17.1;NaN;4.24;2.1;212.95;19 / 34;24810;2021-10-20 19:32:47:567
5.78;-7.113;1.029;-7.5657;-6.1435;1.087;2.3821;0.1526;-0.9785;0.307;0.1214;0.3365;58.0;-29.59;-13.44;-2.04;57.0;38.78;71.79;5.0;46.982;39.4694;-0.339512;17.1;NaN;4.24;2.1;212.95;19 / 34;24860;2021-10-20 19:32:47:617
5.78;-7.113;1.029;-7.5657;-6.1435;1.087;1.1439;1.4732;0.6983;0.3339;0.1573;0.6644;58.0;-29.64;-14.34;-2.51;44.26;38.79;81.82;5.0;46.982;39.4694;-0.339512;17.1;NaN;4.24;2.1;212.95;19 / 34;24910;2021-10-20 19:32:47:667
7.8;-9.78;0.426;-7.6662;-6.1052;0.3304;1.1439;1.4732;0.6983;-0.1496;-0.0403;0.734;58.0;-29.64;-14.34;-2.51;44.26;38.79;81.82;5.0;46.982;39.4694;-0.339512;17.1;NaN;4.24;2.1;212.95;19 / 34;24960;2021-10-20 19:32:47:717
8.868;-9.598;2.666;-7.0533;-6.5266;1.9537;-1.4901;3.8189;-0.0688;-0.1496;-0.0403;0.734;58.0;-29.76;-14.29;-3.54;44.26;38.79;81.82;5.0;46.982;39.4694;-0.339512;17.1;NaN;4.24;2.1;212.95;19 / 34;25010;2021-10-20 19:32:47:767
11.3981;-3.0041;5.129;-2.2889;-8.6957;3.9121;-4.5233;-3.8778;-3.7756;0.1024;0.0986;0.1162;87.0;-30.06;-11.76;-4.31;80.19;62.47;30.33;5.0;46.982;39.4694;-0.339512;17.1;NaN;4.24;2.1;212.95;19 / 34;25060;2021-10-20 19:32:47:817
9.3281;-4.5161;-1.086;-4.2473;-8.7819;-1.0151;-4.5233;-3.8778;-3.7756;0.1024;0.0986;0.1162;87.0;-30.06;-11.76;-4.31;80.19;62.47;30.33;5.0;52.707;39.4694;-0.339512;17.1;NaN;4.24;2.1;212.95;19 / 34;25110;2021-10-20 19:32:47:867
6.924;-5.948;-3.2839;-6.0094;-7.0006;-3.3232;-0.6498;-0.6538;4.2628;0.4906;0.2124;-0.9351;87.0;-30.6;-9.06;-5.21;80.19;62.47;30.33;5.0;52.707;39.4694;-0.339512;17.1;NaN;4.24;2.1;212.95;19 / 34;25160;2021-10-20 19:32:47:917
6.924;-5.948;-3.2839;-6.0094;-7.0006;-3.3232;-0.6498;-0.6538;4.2628;-0.8969;-0.1688;-1.191;87.0;-30.6;-9.06;-5.21;80.19;62.47;30.33;5.0;52.707;39.4694;-0.339512;17.1;NaN;4.24;2.1;212.95;19 / 34;25211;2021-10-20 19:32:47:968
7.9151;-4.133;-0.842;-4.5155;-8.6574;-0.9098;-0.4935;-1.5241;2.7157;-0.8969;-0.1688;-1.191;87.0;-31.44;-9.19;-5.16;357.02;61.98;101.39;0.0;52.707;39.4694;-0.339512;17.1;NaN;4.24;2.1;212.95;19 / 34;25261;2021-10-20 19:32:48:018
6.345;-4.722;0.675;-5.8323;-7.8386;0.8284;1.2718;-1.4213;0.2619;-1.7109;-0.4338;-0.0909;87.0;-31.8;-9.66;-6.6;31.67;53.07;81.92;0.0;52.707;39.4694;-0.339512;17.1;NaN;4.24;2.1;212.95;19 / 34;25311;2021-10-20 19:32:48:068
6.8411;-5.2009;0.533;-5.9185;-7.7955;0.6081;1.1726;-0.4682;-0.4927;-0.1294;0.157;-0.1618;73.0;-31.8;-9.66;-6.6;31.67;53.07;81.92;0.0;52.707;39.4694;-0.339512;17.1;NaN;4.24;2.1;212.95;19 / 34;25361;2021-10-20 19:32:48:118
8.621;-5.4379;-1.074;-5.205;-8.2456;-1.0199;1.1726;-0.4682;-0.4927;-0.1294;0.157;-0.1618;73.0;-32.16;-8.89;-8.94;32.6;52.65;84.13;0.0;45.009;39.46939;-0.339518;17.1;NaN;4.05;2.1;172.28;19 / 34;25411;2021-10-20 19:32:48:168
10.4261;-7.1449;-0.067;-5.5402;-8.0924;-0.0431;-1.1615;0.5639;0.8518;-0.3959;0.2475;-0.0043;73.0;-32.29;-7.44;-9.9;32.6;52.65;84.13;0.0;45.009;39.46939;-0.339518;17.1;NaN;4.05;2.1;172.28;19 / 34;25461;2021-10-20 19:32:48:218
10.4261;-7.1449;-0.067;-5.5402;-8.0924;-0.0431;-1.1615;0.5639;0.8518;-0.3959;0.2475;-0.0043;73.0;-32.29;-7.44;-9.9;32.6;52.65;84.13;0.0;45.009;39.46939;-0.339518;17.1;NaN;4.05;2.1;172.28;19 / 34;25511;2021-10-20 19:32:48:268
13.773;-8.7431;-0.8539;-5.2433;-8.2696;-0.5076;-5.2281;2.0956;0.3784;-0.7487;0.2762;-0.1955;73.0;-31.86;-5.29;-10.31;15.37;57.5;95.53;0.0;45.009;39.46939;-0.339518;17.1;NaN;4.05;2.1;172.28;19 / 34;25561;2021-10-20 19:32:48:318
13.469;-4.033;3.195;-2.7438;-9.1602;2.1691;-5.2726;-1.3704;-3.2651;-0.3325;0.4521;-0.3597;73.0;-31.86;-5.29;-10.31;15.37;57.5;95.53;0.0;45.009;39.46939;-0.339518;17.1;NaN;4.05;2.1;172.28;19 / 34;25611;2021-10-20 19:32:48:368
11.0891;-3.588;1.3901;-5.3295;-8.2265;0.2682;-2.6588;-1.4288;-1.2246;-0.3325;0.4521;-0.3597;73.0;-32.29;-3.79;-10.14;59.62;69.1;51.67;5.0;45.009;39.46939;-0.339518;17.1;NaN;4.05;2.1;172.28;19 / 34;25660;2021-10-20 19:32:48:417
6.3161;-7.597;-0.189;-5.3295;-8.2265;0.2682;-2.6588;-1.4288;-1.2246;-0.0571;0.5864;-0.8095;45.0;-32.7;-4.39;-9.9;24.93;57.03;87.12;5.0;45.009;39.46939;-0.339518;17.1;NaN;4.05;2.1;172.28;19 / 34;25710;2021-10-20 19:32:48:467
8.444;-5.277;1.146;-7.0102;-6.857;-0.067;2.2995;2.9061;0.6297;0.0238;0.2657;-0.0436;45.0;-32.7;-4.39;-9.9;24.93;57.03;87.12;5.0;47.483;39.46939;-0.339518;17.1;NaN;4.05;2.1;172.28;19 / 34;25761;2021-10-20 19:32:48:518
7.008;-5.493;1.9691;-5.0422;-8.2983;1.3647;0.1768;0.2958;-0.7828;0.0238;0.2657;-0.0436;45.0;-33.54;-7.26;-9.54;40.33;57.81;74.86;5.0;47.483;39.46939;-0.339518;17.1;NaN;4.05;2.1;172.28;19 / 34;25810;2021-10-20 19:32:48:567
7.008;-5.493;1.9691;-6.5266;-7.0294;2.0446;0.1768;0.2958;-0.7828;0.1814;-0.0252;0.7675;45.0;-34.2;-10.61;-8.64;53.94;45.78;72.61;5.0;47.483;39.46939;-0.339518;17.1;NaN;4.05;2.1;172.28;19 / 34;25860;2021-10-20 19:32:48:617
5.6411;-6.278;1.941;-7.2832;-6.1866;2.2122;2.4888;0.8452;-1.1793;0.83;0.0371;0.6247;45.0;-34.2;-10.61;-8.64;53.94;45.78;72.61;5.0;47.483;39.46939;-0.339518;17.1;NaN;4.05;2.1;172.28;19 / 34;25910;2021-10-20 19:32:48:667
5.2271;-6.091;1.694;-7.3406;-6.2872;1.6424;2.7076;0.4122;-0.6122;0.83;0.0371;0.6247;45.0;-33.84;-13.39;-8.21;62.92;39.1;73.1;5.0;47.483;39.46939;-0.339518;17.1;NaN;4.05;2.1;172.28;19 / 34;25960;2021-10-20 19:32:48:717
5.864;-7.302;0.4691;-7.7572;-5.9951;0.2825;2.7076;0.4122;-0.6122;0.6903;-0.0144;1.0119;45.0;-33.84;-13.39;-8.21;62.92;39.1;73.1;5.0;47.483;39.46939;-0.339518;17.1;NaN;4.05;2.1;172.28;19 / 34;26010;2021-10-20 19:32:48:767
7.76;-9.263;0.047;-7.7572;-5.9951;0.2825;1.3887;1.6088;1.0471;0.6903;-0.0144;1.0119;81.0;-33.36;-15.79;-8.1;62.92;39.1;73.1;5.0;46.311;39.46939;-0.339518;17.1;NaN;4.05;2.1;172.28;19 / 34;26060;2021-10-20 19:32:48:817
6.951;-9.548;2.8361;-7.8817;-5.8371;0.1532;-0.5616;3.7715;0.9967;-0.037;-0.2864;0.8584;81.0;-33.96;-16.09;-8.16;49.96;36.52;88.89;5.0;46.311;39.46939;-0.339518;17.1;NaN;4.05;2.1;172.28;19 / 34;26110;2021-10-20 19:32:48:867
6.951;-9.548;2.8361;-3.8834;-8.1786;3.7637;-0.5616;3.7715;0.9967;0.0902;-0.1426;0.6091;81.0;-33.96;-16.09;-8.16;49.96;36.52;88.89;5.0;46.311;39.46939;-0.339518;17.1;NaN;4.05;2.1;172.28;19 / 34;26160;2021-10-20 19:32:48:917
12.4631;-3.0971;3.887;-3.2226;-9.2177;-0.8859;-3.6342;-2.0075;-3.6932;0.0902;-0.1426;0.6091;81.0;-34.86;-13.01;-9.6;75.79;56.53;45.9;5.0;46.311;39.46939;-0.339518;17.1;NaN;4.05;2.1;172.28;19 / 34;26210;2021-10-20 19:32:48:967
8.949;-5.086;-2.376;-3.2226;-9.2177;-0.8859;-3.7402;-2.9584;2.3639;0.432;0.0315;-0.8341;81.0;-35.04;-9.79;-10.44;75.79;56.53;45.9;5.0;46.311;39.46939;-0.339518;17.1;NaN;4.05;2.1;172.28;19 / 34;26260;2021-10-20 19:32:49:017
7.2161;-5.1;-2.4431;-6.0956;-7.3215;-2.3224;0.4035;-0.3067;3.5263;-1.0326;-0.1544;-1.2886;81.0;-35.04;-9.79;-10.44;75.79;56.53;45.9;5.0;46.311;39.46939;-0.339518;17.1;NaN;4.05;2.1;172.28;19 / 34;26311;2021-10-20 19:32:49:068
7.731;-3.765;-0.713;-4.0989;-8.7005;-1.9297;0.4035;-0.3067;3.5263;-1.0326;-0.1544;-1.2886;77.0;-34.86;-8.46;-9.54;348.25;62.49;115.21;5.0;43.291;39.46939;-0.339518;17.1;NaN;4.05;2.1;172.28;19 / 34;26360;2021-10-20 19:32:49:117
7.35;-4.954;1.287;-5.0326;-8.3701;0.9098;0.214;-1.9899;1.0652;-1.5657;-0.3535;-0.3041;77.0;-34.86;-8.46;-9.54;348.25;62.49;115.21;5.0;43.291;39.469383;-0.339522;17.1;NaN;4.02;2.1;179.84;19 / 34;26410;2021-10-20 19:32:49:167
7.35;-4.954;1.287;-5.1954;-8.2265;1.2354;0.7015;-0.6644;-1.4418;-1.5657;-0.3535;-0.3041;77.0;-35.1;-7.56;-10.86;348.25;62.49;115.21;5.0;43.291;39.469383;-0.339522;17.1;NaN;4.02;2.1;179.84;19 / 34;26460;2021-10-20 19:32:49:217
8.76;-4.674;0.572;-4.6878;-8.5952;-0.5555;-0.588;-0.7509;-0.6906;-0.1385;0.1962;-0.3901;77.0;-34.99;-6.41;-13.5;43.89;57.01;76.62;0.0;43.291;39.469383;-0.339522;17.1;NaN;4.02;2.1;179.84;19 / 34;26510;2021-10-20 19:32:49:267
9.366;-6.0341;-0.753;-4.6878;-8.5952;-0.5555;-0.588;-0.7509;-0.6906;-0.085;0.3523;-0.1915;77.0;-34.99;-6.41;-13.5;43.89;57.01;76.62;0.0;43.291;39.469383;-0.339522;17.1;NaN;4.02;2.1;179.84;19 / 34;26560;2021-10-20 19:32:49:317
11.4431;-7.853;-0.033;-5.8993;-7.8338;-0.0096;-1.1725;1.7117;0.4513;-0.085;0.3523;-0.1915;77.0;-34.56;-5.46;-13.8;43.89;57.01;76.62;0.0;43.291;39.469383;-0.339522;17.1;NaN;4.02;2.1;179.84;19 / 34;26610;2021-10-20 19:32:49:367
13.26;-9.1549;0.89;-5.952;-7.7955;0.0479;-4.9323;4.7672;-0.0561;-0.5785;0.2362;0.0397;77.0;-35.16;-4.69;-13.14;28.27;52.64;89.54;0.0;43.291;39.469383;-0.339522;17.1;NaN;4.02;2.1;179.84;19 / 34;26661;2021-10-20 19:32:49:418
14.694;-1.053;3.4991;-1.6903;-9.4858;1.8244;-6.1465;-2.7615;-2.7008;-0.1607;0.3362;-0.1596;29.0;-35.16;-4.69;-13.14;28.27;52.64;89.54;5.0;47.653;39.469383;-0.339522;17.1;NaN;4.02;2.1;179.84;19 / 34;26710;2021-10-20 19:32:49:467
14.694;-1.053;3.4991;-1.6903;-9.4858;1.8244;-6.1465;-2.7615;-2.7008;-0.1607;0.3362;-0.1596;29.0;-35.4;-3.79;-12.54;69.69;75.31;42.82;5.0;47.653;39.469383;-0.339522;17.1;NaN;4.02;2.1;179.84;19 / 34;26760;2021-10-20 19:32:49:517
8.0351;-6.5201;0.4691;-6.1723;-7.6088;0.4405;0.473;1.628;-0.064;0.147;0.4791;-0.6919;29.0;-35.4;-3.79;-12.54;69.69;75.31;42.82;5.0;47.653;39.469383;-0.339522;17.1;NaN;4.02;2.1;179.84;19 / 34;26810;2021-10-20 19:32:49:567
