sep=;
ACCELEROMETER X (m/s²);ACCELEROMETER Y (m/s²);ACCELEROMETER Z (m/s²);GRAVITY X (m/s²);GRAVITY Y (m/s²);GRAVITY Z (m/s²);LINEAR ACCELERATION X (m/s²);LINEAR ACCELERATION Y (m/s²);LINEAR ACCELERATION Z (m/s²);GYROSCOPE X (rad/s);GYROSCOPE Y (rad/s);GYROSCOPE Z (rad/s);LIGHT (lux);MAGNETIC FIELD X (μT);MAGNETIC FIELD Y (μT);MAGNETIC FIELD Z (μT);ORIENTATION Z (azimuth °);ORIENTATION X (pitch °);ORIENTATION Y (roll °);PROXIMITY (m);SOUND LEVEL (dB);LOCATION Latitude : ;LOCATION Longitude : ;LOCATION Altitude ( m);LOCATION Altitude-google ( m);LOCATION Speed ( Kmh);LOCATION Accuracy ( m);LOCATION ORIENTATION (°);Satellites in range;Time since start in ms ;YYYY-MO-DD HH-MI-SS_SSS
6.3041;1.419;13.1411;-2.5953;-4.7836;8.1594;-5.9371;1.7371;-8.2843;-0.5657;-0.6729;0.7569;586.0;26.29;-6.54;-29.16;250.63;12.29;-20.93;5.0;48.081;39.468937;-0.341245;-51.8;NaN;2.17;6.7;258.74;11 / 33;14;2021-10-20 19:26:43:446
6.3041;1.419;13.1411;-2.5953;-4.7836;8.1594;-5.9371;1.7371;-8.2843;-0.5657;-0.6729;0.7569;586.0;26.29;-6.54;-29.16;250.63;12.29;-20.93;5.0;48.081;39.468937;-0.341245;-51.8;NaN;2.17;6.7;258.74;11 / 33;64;2021-10-20 19:26:43:496
2.984;-0.057;5.1911;-0.091;-4.889;8.5042;-1.1944;4.7701;4.6914;-0.817;-0.7403;0.9126;603.0;23.76;-4.31;-31.14;212.14;29.19;17.64;5.0;48.081;39.468937;-0.341245;-51.8;NaN;2.17;6.7;258.74;11 / 33;114;2021-10-20 19:26:43:546
-1.816;-5.309;5.952;-6.3638;2.1787;7.1347;-1.2527;3.5622;5.7107;-1.3612;-1.767;1.4028;603.0;10.14;-2.7;-35.4;74.61;-12.84;41.73;5.0;47.681;39.468937;-0.341245;-51.8;NaN;2.17;6.7;258.74;11 / 33;165;2021-10-20 19:26:43:597
-1.816;-5.309;5.952;-6.3638;2.1787;7.1347;-1.2527;3.5622;5.7107;-1.3612;-1.767;1.4028;603.0;10.14;-2.7;-35.4;74.61;-12.84;41.73;5.0;47.681;39.468937;-0.341245;-51.8;NaN;2.17;6.7;258.74;11 / 33;215;2021-10-20 19:26:43:647
-1.1561;1.347;3.087;3.6919;3.1651;8.5186;5.865;0.8252;5.6988;-1.3179;-0.6321;1.7794;603.0;-4.14;-4.56;-34.44;74.61;-12.84;41.73;5.0;47.681;39.468906;-0.341265;-51.5;NaN;3.13;5.4;252.11;12 / 33;264;2021-10-20 19:26:43:696
11.408;-3.528;-2.5579;-2.8347;-9.1602;-2.0446;-4.1863;1.8947;11.7131;-1.0974;-4.2056;2.5684;603.0;-28.91;-6.96;-21.24;0.12;69.12;125.8;5.0;47.681;39.468906;-0.341265;-51.5;NaN;3.13;5.4;252.11;12 / 33;315;2021-10-20 19:26:43:747
16.4681;-2.747;-1.46;-1.6041;-9.6391;-0.8523;-9.8443;-1.0447;8.0548;-1.0974;-4.2056;2.5684;367.0;-28.91;-6.96;-21.24;0.12;69.12;125.8;5.0;47.681;39.468906;-0.341265;-51.5;NaN;3.13;5.4;252.11;12 / 33;365;2021-10-20 19:26:43:797
18.048;-7.269;3.006;-3.6152;-8.9926;1.494;-9.8443;-1.0447;8.0548;-0.2161;-4.1491;-0.0458;367.0;-38.59;1.14;-21.9;1.46;79.33;117.98;5.0;47.681;39.468906;-0.341265;-51.5;NaN;3.13;5.4;252.11;12 / 33;414;2021-10-20 19:26:43:846
18.048;-7.269;3.006;-3.6152;-8.9926;1.494;-9.6273;4.5803;1.2581;-0.2161;-4.1491;-0.0458;367.0;-38.59;1.14;-21.9;1.46;79.33;117.98;5.0;50.682;39.468906;-0.341265;-51.5;NaN;3.13;5.4;252.11;12 / 33;465;2021-10-20 19:26:43:897
32.6321;-7.329;-2.858;-2.1404;-9.5337;-0.8332;-19.4634;6.7363;5.2673;-0.208;-2.1043;-0.0129;367.0;-35.89;10.91;-24.96;54.65;66.49;67.55;0.0;50.682;39.468906;-0.341265;-51.5;NaN;3.13;5.4;252.11;12 / 33;514;2021-10-20 19:26:43:946
9.215;-8.9449;2.5061;-6.7038;-6.9097;1.8723;-19.4634;6.7363;5.2673;-1.2332;-0.9982;0.2336;367.0;-27.9;13.91;-31.69;54.65;66.49;67.55;0.0;50.682;39.468906;-0.341265;-51.5;NaN;3.13;5.4;252.11;12 / 33;565;2021-10-20 19:26:43:997
9.8951;-6.0671;3.894;-4.8602;-7.9296;3.1125;1.4932;5.0144;-3.86;-1.2332;-0.9982;0.2336;367.0;-27.9;13.91;-31.69;54.65;66.49;67.55;0.0;50.682;39.468906;-0.341265;-51.5;NaN;3.13;5.4;252.11;12 / 33;615;2021-10-20 19:26:44:047
8.8991;0.1601;4.241;0.1484;-8.8538;4.2138;3.6042;-2.8371;10.7829;-1.0127;0.1067;0.4554;367.0;-21.6;12.54;-36.84;81.41;53.95;57.36;0.0;50.682;39.468906;-0.341265;-51.5;NaN;3.13;5.4;252.11;12 / 33;664;2021-10-20 19:26:44:096
-2.175;0.672;0.0041;2.8874;9.3709;0.0;7.6971;-6.2714;5.4332;-1.2544;0.5957;-0.4295;234.0;-21.3;6.96;-39.0;149.16;64.53;-2.02;0.0;50.682;39.468906;-0.341265;-51.5;NaN;3.13;5.4;252.11;12 / 33;715;2021-10-20 19:26:44:147
-2.175;0.672;0.0041;2.8874;9.3709;0.0;7.6971;-6.2714;5.4332;-1.2544;0.5957;-0.4295;234.0;-21.3;6.96;-39.0;149.16;64.53;-2.02;0.0;59.342;39.468906;-0.341265;-51.5;NaN;3.13;5.4;252.11;12 / 33;764;2021-10-20 19:26:44:196
6.632;-0.3371;3.291;-0.4357;-8.7771;4.3527;2.5181;-2.8471;-1.6696;-1.6745;0.382;-1.9262;234.0;-25.5;0.11;-37.01;136.02;63.51;5.72;0.0;59.342;39.468906;-0.341265;-51.5;NaN;3.13;5.4;252.11;12 / 33;815;2021-10-20 19:26:44:247
4.253;2.726;-1.864;4.9704;-7.7524;-3.3806;5.2965;-4.6607;2.9894;-1.6745;0.382;-1.9262;234.0;-25.5;0.11;-37.01;136.02;63.51;5.72;0.0;59.342;39.468906;-0.341265;-51.5;NaN;3.13;5.4;252.11;12 / 33;865;2021-10-20 19:26:44:297
7.896;-6.1151;4.631;-5.4444;-7.0342;4.1324;5.2965;-4.6607;2.9894;-0.9714;-0.1308;-2.347;234.0;-31.09;-3.49;-31.74;259.83;52.21;-124.22;0.0;59.342;39.468906;-0.341265;-51.5;NaN;3.13;5.4;252.11;12 / 33;914;2021-10-20 19:26:44:346
7.556;-7.7929;-4.5041;-6.5074;-6.3015;-3.7541;-0.1999;8.6664;4.8392;1.8046;-0.7791;1.3228;234.0;-34.26;-4.5;-26.89;14.62;39.99;119.98;0.0;59.342;39.468906;-0.341265;-51.5;NaN;3.13;5.4;252.11;12 / 33;965;2021-10-20 19:26:44:397
10.1081;-6.5599;-0.538;-5.3295;-8.2217;-0.431;-2.2426;3.7355;1.9508;1.8046;-0.7791;1.3228;234.0;-34.26;-4.5;-26.89;14.62;39.99;119.98;0.0;59.342;39.468906;-0.341265;-51.5;NaN;3.13;5.4;252.11;12 / 33;1014;2021-10-20 19:26:44:446
10.1081;-6.5599;-0.538;-5.3295;-8.2217;-0.431;-2.2426;3.7355;1.9508;2.0248;-1.4909;1.9007;0.0;-35.94;-1.2;-25.44;35.19;56.96;94.62;0.0;63.536;39.468906;-0.341265;-51.5;NaN;3.13;5.4;252.11;12 / 33;1064;2021-10-20 19:26:44:496
17.0831;-7.1659;-1.3301;-3.7828;-9.0214;-0.6991;-8.7477;1.4918;1.9559;2.0248;-1.4909;1.9007;0.0;-35.94;-1.2;-25.44;35.19;56.96;94.62;0.0;63.536;39.468906;-0.341265;-51.5;NaN;3.13;5.4;252.11;12 / 33;1115;2021-10-20 19:26:44:547
15.4121;-10.737;5.646;-6.8666;-4.3287;5.5067;-6.2506;7.2165;-5.5427;1.0185;-0.7569;0.3417;0.0;-34.74;5.81;-27.0;27.66;66.91;100.47;0.0;63.536;39.468906;-0.341265;-51.5;NaN;3.13;5.4;252.11;13 / 33;1165;2021-10-20 19:26:44:597
4.9691;-6.513;-14.088;-4.4772;-8.7005;0.6225;3.9622;2.4447;14.3545;1.3995;-0.0426;1.1556;0.0;-33.24;11.76;-28.5;27.66;66.91;100.47;0.0;63.536;39.468906;-0.341265;-51.5;NaN;3.13;5.4;252.11;13 / 33;1215;2021-10-20 19:26:44:647
7.2071;-4.425;-2.496;-4.4772;-8.7005;0.6225;3.9622;2.4447;14.3545;1.3995;-0.0426;1.1556;0.0;-33.24;11.76;-28.5;27.66;66.91;100.47;0.0;63.536;39.468906;-0.341265;-51.5;NaN;3.13;5.4;252.11;13 / 33;1264;2021-10-20 19:26:44:696
1.895;-8.1161;0.675;-6.9145;-6.9145;-0.7566;5.1412;-1.8784;0.5803;0.4747;-0.3776;1.5459;0.0;-36.11;13.91;-23.59;28.32;44.83;96.24;0.0;63.536;39.468906;-0.341265;-51.5;NaN;3.13;5.4;252.11;13 / 33;1314;2021-10-20 19:26:44:746
4.7561;-2.379;-2.714;-9.0022;-3.8595;-0.4836;4.7358;1.5599;0.0992;-0.9625;-0.6449;0.9375;38.0;-39.36;14.59;-15.66;28.32;44.83;96.24;0.0;63.793;39.468906;-0.341265;-51.5;NaN;3.13;5.4;252.11;13 / 33;1365;2021-10-20 19:26:44:797
4.7561;-2.379;-2.714;4.5825;-2.2505;-8.3749;4.7358;1.5599;0.0992;-0.9625;-0.6449;0.9375;38.0;-39.36;14.59;-15.66;28.32;44.83;96.24;0.0;63.793;39.468906;-0.341265;-51.5;NaN;3.13;5.4;252.11;13 / 33;1415;2021-10-20 19:26:44:847
1.685;-0.763;-0.138;-5.7413;-6.3973;-4.7214;9.4494;-7.8669;-0.0083;0.3615;-1.1095;1.0742;38.0;-40.26;15.24;-14.21;287.29;13.26;-151.31;0.0;63.793;39.468906;-0.341265;-51.5;NaN;3.13;5.4;252.11;13 / 33;1464;2021-10-20 19:26:44:896
13.571;-9.189;-6.177;-4.8123;-6.4452;-5.612;-6.3747;2.6973;4.6108;-1.9716;-0.3726;-0.4315;38.0;-38.81;17.89;-16.91;334.42;41.08;139.39;0.0;63.793;39.468906;-0.341265;-51.5;NaN;3.13;5.4;252.11;13 / 33;1515;2021-10-20 19:26:44:947
4.2221;-14.2421;-4.5881;-9.0549;-2.9544;-2.332;-6.3747;2.6973;4.6108;-1.9716;-0.3726;-0.4315;38.0;-38.81;17.89;-16.91;334.42;41.08;139.39;0.0;63.793;39.468906;-0.341265;-51.5;NaN;3.13;5.4;252.11;13 / 33;1564;2021-10-20 19:26:44:996
-0.095;-10.8281;-3.741;-9.0549;-2.9544;-2.332;2.7506;7.0574;0.717;-0.6427;-0.6802;0.418;38.0;-36.49;20.7;-16.61;13.24;17.54;104.44;0.0;63.793;39.468906;-0.341265;-51.5;NaN;3.13;5.4;252.11;13 / 33;1614;2021-10-20 19:26:45:046
-0.347;-6.5081;3.5231;-5.7078;4.3287;6.6942;14.277;3.5606;-14.9819;1.3463;-1.7351;2.116;38.0;-36.49;20.7;-16.61;13.24;17.54;104.44;0.0;65.074;39.468906;-0.341265;-51.5;NaN;3.13;5.4;252.11;13 / 33;1665;2021-10-20 19:26:45:097
-0.347;-6.5081;3.5231;-9.4858;-1.7526;1.7526;14.277;3.5606;-14.9819;1.3463;-1.7351;2.116;27.0;-32.51;26.34;-15.54;61.52;-26.2;40.45;0.0;65.074;39.468906;-0.341265;-51.5;NaN;3.13;5.4;252.11;13 / 33;1714;2021-10-20 19:26:45:146
8.8871;-12.2171;1.778;-9.4858;-1.6185;-1.8962;-3.7553;15.1826;-5.7403;2.7616;-1.6456;2.0186;27.0;-23.81;32.4;-18.96;21.12;9.5;101.3;0.0;65.074;39.468906;-0.341265;-51.5;NaN;3.13;5.4;252.11;13 / 33;1765;2021-10-20 19:26:45:197
0.198;-8.6;-1.407;-9.7923;0.3496;-0.3974;-0.3049;3.6983;0.4733;2.7616;-1.6456;2.0186;27.0;-23.81;32.4;-18.96;21.12;9.5;101.3;0.0;65.074;39.468906;-0.341265;-51.5;NaN;3.13;5.4;252.11;13 / 33;1814;2021-10-20 19:26:45:246
-3.71;-9.059;-2.08;-7.7093;4.4628;4.1037;6.6712;-0.2326;1.0387;0.7191;0.7519;0.5726;27.0;-16.31;34.86;-22.8;33.01;-2.04;92.32;0.0;65.074;39.468906;-0.341265;-51.5;NaN;3.13;5.4;252.11;13 / 33;1865;2021-10-20 19:26:45:297
0.3251;-5.804;-0.134;-7.7093;4.4628;4.1037;6.6712;-0.2326;1.0387;0.1759;0.6245;1.6591;27.0;-13.99;34.09;-25.44;43.68;-27.07;61.97;0.0;65.074;39.468906;-0.341265;-51.5;NaN;3.13;5.4;252.11;13 / 33;1915;2021-10-20 19:26:45:347
0.935;-8.7791;0.543;-9.7588;0.9625;0.0144;1.8445;-3.7293;-0.6924;0.1759;0.6245;1.6591;27.0;-13.99;34.09;-25.44;43.68;-27.07;61.97;0.0;65.074;39.468906;-0.341265;-51.5;NaN;3.13;5.4;252.11;13 / 33;1964;2021-10-20 19:26:45:396
0.935;-8.7791;0.543;-9.8066;0.1101;-0.0958;1.1377;1.1619;-0.2331;0.5745;0.5774;1.3868;27.0;-12.19;31.39;-29.16;43.1;-0.64;90.56;0.0;70.315;39.468906;-0.341265;-51.5;NaN;3.13;5.4;252.11;13 / 33;2014;2021-10-20 19:26:45:446
0.5741;-11.0509;0.473;-9.7396;-1.1444;-0.1341;-0.6522;1.9344;0.0379;-0.052;1.7581;0.2296;0.0;-12.19;31.39;-29.16;43.1;-0.64;90.56;0.0;70.315;39.468906;-0.341265;-51.5;NaN;3.13;5.4;252.11;13 / 33;2065;2021-10-20 19:26:45:497
2.9771;-13.0541;-0.6;-9.5289;-2.1213;-0.9289;-0.6522;1.9344;0.0379;-0.052;1.7581;0.2296;0.0;-9.6;28.8;-32.59;47.58;6.7;90.79;0.0;70.315;39.468906;-0.341265;-51.5;NaN;3.13;5.4;252.11;13 / 33;2114;2021-10-20 19:26:45:546
3.963;-13.741;-4.421;-8.8442;-3.3375;-2.6097;-2.0931;3.0056;2.8374;-0.491;1.944;-0.1793;0.0;-6.6;28.8;-34.14;47.36;12.49;95.57;0.0;70.315;39.468906;-0.341265;-51.5;NaN;3.13;5.4;252.11;13 / 33;2164;2021-10-20 19:26:45:596
5.139;-11.01;-0.555;-8.8442;-3.3375;-2.6097;-4.7794;2.7385;3.487;-0.491;1.944;-0.1793;0.0;-6.6;28.8;-34.14;47.36;12.49;95.57;0.0;70.315;39.468906;-0.341265;-51.5;NaN;3.13;5.4;252.11;13 / 33;2214;2021-10-20 19:26:45:646
-6.249;-17.5279;2.834;-9.7157;-0.7087;1.1349;-4.7794;2.7385;3.487;-1.0219;2.0922;-0.6291;0.0;-6.11;31.14;-32.29;46.26;4.14;83.34;0.0;70.315;39.468906;-0.341265;-51.5;NaN;3.13;5.4;252.11;13 / 33;2265;2021-10-20 19:26:45:697
-6.249;-17.5279;2.834;-9.2129;1.6807;2.9113;7.6607;7.8621;-3.8097;0.2694;0.7591;0.4637;0.0;-9.79;34.99;-24.49;37.23;-9.87;72.46;0.0;60.699;39.468906;-0.341265;-51.5;NaN;3.13;5.4;252.11;13 / 33;2314;2021-10-20 19:26:45:746
2.264;-10.632;-4.461;-9.1171;-0.7757;-3.5338;-1.125;0.9072;3.7709;0.2694;0.7591;0.4637;0.0;-9.79;34.99;-24.49;37.23;-9.87;72.46;0.0;60.699;39.468906;-0.341265;-51.5;NaN;3.13;5.4;252.11;13 / 33;2364;2021-10-20 19:26:45:796
-0.816;-8.463;1.271;-8.9064;2.6528;3.1268;2.2069;-3.9298;-2.48;0.3879;-0.8085;0.9076;0.0;-14.46;38.34;-14.64;12.78;4.54;111.19;0.0;60.699;39.468906;-0.341265;-51.5;NaN;3.13;5.4;252.11;13 / 33;2415;2021-10-20 19:26:45:847
-1.2251;-5.744;0.0401;-9.6486;1.6903;-0.4549;2.2069;-3.9298;-2.48;-0.0576;-1.3449;0.2046;0.0;-14.46;38.34;-14.64;12.78;4.54;111.19;0.0;60.699;39.468906;-0.341265;-51.5;NaN;3.13;5.4;252.11;13 / 33;2465;2021-10-20 19:26:45:897
-1.644;-3.753;1.275;-8.6814;3.9456;2.3032;1.2207;-4.2768;-0.1902;-0.0576;-1.3449;0.2046;0.0;-17.94;39.0;-6.06;8.3;-9.93;92.7;0.0;60.699;39.468906;-0.341265;-51.5;NaN;3.13;5.4;252.11;13 / 33;2515;2021-10-20 19:26:45:947
-0.38;-4.047;-1.515;-8.6814;3.9456;2.3032;0.2965;-6.3997;-0.3042;0.3343;-4.6663;1.4102;0.0;-19.8;38.59;0.11;10.4;-23.72;75.14;0.0;60.699;39.468906;-0.341265;-51.5;NaN;3.13;5.4;252.11;13 / 33;2564;2021-10-20 19:26:45:996
-0.998;-11.309;-12.841;-7.762;1.2929;-5.8514;0.2965;-6.3997;-0.3042;-1.4184;-1.3915;0.3931;0.0;-19.8;38.59;0.11;10.4;-23.72;75.14;0.0;63.183;39.468906;-0.341265;-51.5;NaN;3.13;5.4;252.11;13 / 33;2614;2021-10-20 19:26:46:046
-0.998;-11.309;-12.841;-6.6942;-0.0431;-7.1635;-0.2189;1.6192;11.8887;-1.4184;-1.3915;0.3931;0.0;-20.89;38.64;-1.61;343.07;-7.58;127.01;0.0;63.183;39.468906;-0.341265;-51.5;NaN;3.13;5.4;252.11;13 / 33;2665;2021-10-20 19:26:46:097
-0.533;-18.2749;-7.338;-7.6088;2.648;-5.5929;-0.6131;8.8168;4.9624;-2.0889;0.8229;-0.1143;0.0;-20.34;39.19;-6.54;349.05;-15.66;126.32;0.0;63.183;39.468906;-0.341265;-51.5;NaN;3.13;5.4;252.11;13 / 33;2715;2021-10-20 19:26:46:147
-4.89;-11.74;8.234;-8.4803;1.1205;4.7932;3.7787;2.5441;-11.4838;-2.0889;0.8229;-0.1143;0.0;-20.34;39.19;-6.54;349.05;-15.66;126.32;0.0;63.183;39.468906;-0.341265;-51.5;NaN;3.13;5.4;252.11;13 / 33;2764;2021-10-20 19:26:46:196
2.901;-7.176;0.464;-7.0006;-6.3686;2.5666;3.7787;2.5441;-11.4838;-0.3649;-0.4764;-0.091;0.0;-19.09;39.06;-9.0;24.7;-6.56;60.52;0.0;63.183;39.468906;-0.341265;-51.5;NaN;3.13;5.4;252.11;13 / 33;2814;2021-10-20 19:26:46:246
-1.4171;-9.4301;0.6911;-7.0006;-6.3686;2.5666;-8.2915;-1.4663;-5.7254;1.9752;-2.592;-0.6414;0.0;-19.09;39.06;-9.0;24.7;-6.56;60.52;0.0;63.183;39.468906;-0.341265;-51.5;NaN;3.13;5.4;252.11;13 / 33;2865;2021-10-20 19:26:46:297
0.9281;-10.05;-0.011;-9.414;2.4852;-1.1636;-0.3795;0.3328;-0.7215;1.9752;-2.592;-0.6414;0.0;-18.19;38.51;-13.5;27.28;40.5;69.87;0.0;63.183;39.468906;-0.341265;-51.5;NaN;3.13;5.4;252.11;13 / 33;2915;2021-10-20 19:26:46:347
0.9281;-10.05;-0.011;-9.6007;0.5459;-1.9249;-0.3795;0.3328;-0.7215;0.894;0.8999;-1.1456;0.0;-17.04;37.09;-18.6;23.12;-3.19;101.34;0.0;63.086;39.468906;-0.341265;-51.5;NaN;3.13;5.4;252.11;13 / 33;2965;2021-10-20 19:26:46:397
1.472;-8.736;1.079;-9.6774;-1.3312;0.8811;0.0762;-1.0295;0.7131;0.1998;1.243;0.0175;0.0;-17.04;37.09;-18.6;23.12;-3.19;101.34;0.0;63.086;39.468906;-0.341265;-51.5;NaN;3.13;5.4;252.11;13 / 33;3014;2021-10-20 19:26:46:446
0.359;-9.074;-0.7991;-9.7731;-0.8475;0.0575;-0.5706;-0.183;0.2237;0.1998;1.243;0.0175;0.0;-15.79;34.69;-23.81;34.75;7.8;84.8;0.0;63.086;39.468906;-0.341265;-51.5;NaN;3.13;5.4;252.11;13 / 33;3064;2021-10-20 19:26:46:496
-0.327;-11.123;-1.287;-9.7779;-0.0479;-0.723;0.2373;1.3232;0.734;0.0634;1.6863;-0.1676;0.0;-13.01;32.21;-27.71;40.4;4.96;89.66;0.0;63.086;39.468906;-0.341265;-51.5;NaN;3.13;5.4;252.11;12 / 33;3114;2021-10-20 19:26:46:546
3.1571;-12.5539;-0.708;-9.7779;-0.0479;-0.723;0.2373;1.3232;0.734;0.0634;1.6863;-0.1676;0.0;-13.01;32.21;-27.71;40.4;4.96;89.66;0.0;63.086;39.468906;-0.341265;-51.5;NaN;3.13;5.4;252.11;12 / 33;3165;2021-10-20 19:26:46:597
4.0211;-12.5539;-1.869;-9.3134;-2.9832;-0.747;-3.0683;2.7532;0.148;-0.0913;1.8527;-0.2214;0.0;-9.3;30.36;-30.54;43.27;17.71;94.59;0.0;63.086;39.468906;-0.341265;-51.5;NaN;3.13;5.4;252.11;12 / 33;3215;2021-10-20 19:26:46:647
4.0211;-12.5539;-1.869;-8.9256;-3.3998;-2.2266;-4.5603;3.7068;2.6499;-0.5013;2.435;-0.6189;0.0;-9.3;30.36;-30.54;43.27;17.71;94.59;0.0;61.171;39.468906;-0.341265;-51.5;NaN;3.13;5.4;252.11;12 / 33;3264;2021-10-20 19:26:46:696
5.763;-12.676;-3.954;-9.1315;-3.5482;-0.4405;-3.3408;1.9525;-0.4839;-0.5013;2.435;-0.6189;0.0;-6.49;30.96;-30.84;40.35;20.28;104.01;0.0;61.171;39.468906;-0.341265;-51.5;NaN;3.13;5.4;252.11;12 / 33;3314;2021-10-20 19:26:46:746
-5.888;-12.1999;-0.497;-9.1219;3.2561;1.5419;-3.3408;1.9525;-0.4839;-0.6693;2.2397;-0.6343;0.0;-8.4;34.61;-26.51;40.35;20.28;104.01;0.0;61.171;39.468906;-0.341265;-51.5;NaN;3.13;5.4;252.11;12 / 33;3365;2021-10-20 19:26:46:797
1.656;-12.865;1.0691;-9.2656;-1.6616;-2.7533;3.3246;6.2214;-5.847;0.5361;0.2911;0.5484;0.0;-8.4;34.61;-26.51;40.35;20.28;104.01;0.0;61.171;39.468906;-0.341265;-51.5;NaN;3.13;5.4;252.11;12 / 33;3415;2021-10-20 19:26:46:847
0.1811;-11.6111;-1.335;-9.2656;-1.6616;-2.7533;-0.9657;1.759;2.5636;0.5361;0.2911;0.5484;0.0;-13.69;38.29;-18.66;19.29;9.75;106.55;0.0;61.171;39.468906;-0.341265;-51.5;NaN;3.13;5.4;252.11;12 / 33;3465;2021-10-20 19:26:46:897
-1.6301;-5.021;1.3331;-9.7588;0.3639;0.9146;-0.9657;1.759;2.5636;0.6062;-1.631;1.0073;0.0;-17.89;39.9;-9.3;19.29;9.75;106.55;0.0;61.171;39.468906;-0.341265;-51.5;NaN;3.13;5.4;252.11;12 / 33;3514;2021-10-20 19:26:46:946
-1.6301;-5.021;1.3331;-9.4619;2.5666;0.1197;1.9563;-4.7787;-1.7615;0.6062;-1.631;1.0073;0.0;-17.89;39.9;-9.3;19.29;9.75;106.55;0.0;63.98;39.468906;-0.341265;-51.5;NaN;3.13;5.4;252.11;12 / 33;3564;2021-10-20 19:26:46:996
-1.721;-4.224;0.545;-8.3606;4.0366;3.1651;1.5363;-6.2734;-1.6223;0.1502;-2.0307;0.2691;0.0;-21.06;39.11;-2.4;18.54;-24.3;69.26;0.0;63.98;39.468906;-0.341265;-51.5;NaN;3.13;5.4;252.11;12 / 33;3615;2021-10-20 19:26:47:047
-1.115;-3.9851;-0.354;-8.8298;1.1157;-4.118;1.5363;-6.2734;-1.6223;0.0131;-4.0217;1.4877;0.0;-21.06;39.11;-2.4;18.54;-24.3;69.26;0.0;63.98;39.468906;-0.341265;-51.5;NaN;3.13;5.4;252.11;12 / 33;3665;2021-10-20 19:26:47:097
-0.615;-9.718;-8.784;-6.9288;-0.0096;-6.9384;-0.3015;-4.2651;2.3721;0.0131;-4.0217;1.4877;0.0;-22.61;37.99;0.41;344.64;-6.53;115.0;0.0;63.98;39.468906;-0.341265;-51.5;NaN;3.13;5.4;252.11;12 / 33;3715;2021-10-20 19:26:47:147
1.7351;-18.277;-10.053;-8.7388;0.2442;-4.4436;-2.5427;6.5752;12.7493;-2.1152;0.0213;0.0898;0.0;-22.14;38.21;-2.4;339.58;0.06;135.04;0.0;63.98;39.468906;-0.341265;-51.5;NaN;3.13;5.4;252.11;12 / 33;3765;2021-10-20 19:26:47:197
-7.02;-10.6661;-2.668;-8.7388;0.2442;-4.4436;3.4564;-0.1154;4.0954;-1.8965;0.6245;-0.1116;0.0;-22.14;38.21;-2.4;339.58;0.06;135.04;0.0;63.98;39.468906;-0.341265;-51.5;NaN;3.13;5.4;252.11;12 / 33;3815;2021-10-20 19:26:47:247
1.44;-6.855;1.352;-8.5186;3.6679;3.1891;3.4564;-0.1154;4.0954;-1.8965;0.6245;-0.1116;0.0;-21.66;39.3;-5.64;24.5;-21.96;69.48;0.0;63.98;39.468906;-0.341265;-51.5;NaN;3.13;5.4;252.11;12 / 33;3864;2021-10-20 19:26:47:296
1.44;-6.855;1.352;-6.7325;-4.6017;5.4492;-2.5086;-2.374;-4.4959;0.1755;-1.1439;-0.1382;0.0;-21.06;39.3;-8.59;27.13;27.98;51.01;0.0;59.243;39.468906;-0.341265;-51.5;NaN;3.13;5.4;252.11;12 / 33;3915;2021-10-20 19:26:47:347
3.018;-9.026;2.7;-9.8019;0.1389;0.2777;-1.1161;3.0524;-2.1881;1.9639;-2.8205;-0.5173;0.0;-21.06;39.3;-8.59;27.13;27.98;51.01;0.0;59.243;39.468906;-0.341265;-51.5;NaN;3.13;5.4;252.11;12 / 33;3965;2021-10-20 19:26:47:397
1.091;-10.187;-0.49;-9.7444;-0.8523;-0.6991;-1.1161;3.0524;-2.1881;1.9639;-2.8205;-0.5173;0.0;-19.44;37.69;-15.19;22.37;-0.81;88.38;0.0;59.243;39.468906;-0.341265;-51.5;NaN;3.13;5.4;252.11;12 / 33;4015;2021-10-20 19:26:47:447
-0.023;-8.712;-0.648;-9.4954;-1.7669;1.7047;0.5705;-0.4486;1.4557;0.61;1.2621;-1.1375;0.0;-19.44;37.69;-15.19;22.37;-0.81;88.38;0.0;59.243;39.468906;-0.341265;-51.5;NaN;3.13;5.4;252.11;12 / 33;4065;2021-10-20 19:26:47:497
0.756;-10.0069;-0.0469;-9.4954;-1.7669;1.7047;-1.7085;-0.4936;-1.7693;0.61;1.2621;-1.1375;0.0;-18.11;35.59;-21.41;32.16;10.38;79.82;0.0;59.243;39.468742;-0.341413;-51.5;NaN;5.31;4.4;282.37;12 / 33;4114;2021-10-20 19:26:47:546
0.9041;-9.579;-0.0881;-9.8019;0.0;-0.2251;-1.7085;-0.4936;-1.7693;0.1532;1.6082;-0.1972;0.0;-16.61;33.6;-24.41;34.77;0.0;91.32;0.0;59.243;39.468742;-0.341413;-51.5;NaN;5.31;4.4;282.37;12 / 33;4165;2021-10-20 19:26:47:597
0.9041;-9.579;-0.0881;-9.7588;-0.747;-0.6225;-0.7422;-0.2148;-0.4699;0.1342;1.6492;-0.1697;0.0;-16.61;33.6;-24.41;34.77;0.0;91.32;0.0;60.212;39.468742;-0.341413;-51.5;NaN;5.31;4.4;282.37;12 / 33;4215;2021-10-20 19:26:47:647
1.517;-10.7899;-0.612;-9.6726;-1.4557;-0.6895;-1.474;2.4151;0.405;0.1342;1.6492;-0.1697;0.0;-14.46;31.74;-27.49;38.21;4.37;93.65;0.0;60.212;39.468742;-0.341413;-51.5;NaN;5.31;4.4;282.37;12 / 33;4264;2021-10-20 19:26:47:696
2.214;-12.676;-0.9041;-9.5433;-2.0159;-1.0008;-1.474;2.4151;0.405;-0.1636;1.8296;-0.2599;0.0;-11.21;30.06;-29.89;41.65;11.86;95.99;0.0;60.212;39.468742;-0.341413;-51.5;NaN;5.31;4.4;282.37;12 / 33;4314;2021-10-20 19:26:47:746
4.0211;-13.6069;-3.504;-8.9783;-3.0167;-2.5474;-2.9592;2.5632;1.4344;-0.546;2.0717;-0.4396;0.0;-11.21;30.06;-29.89;41.65;11.86;95.99;0.0;60.212;39.468742;-0.341413;-51.5;NaN;5.31;4.4;282.37;12 / 33;4364;2021-10-20 19:26:47:796
4.3541;-11.575;-0.6221;-8.9783;-3.0167;-2.5474;-2.9592;2.5632;1.4344;-0.546;2.0717;-0.4396;0.0;-8.76;30.41;-30.0;38.06;17.91;105.84;0.0;60.212;39.468742;-0.341413;-51.5;NaN;5.31;4.4;282.37;12 / 33;4415;2021-10-20 19:26:47:847
-6.627;-14.909;2.24;-9.73;-0.4836;1.1013;-3.1336;1.8817;-0.3686;-0.6781;1.9385;-0.4416;0.0;-8.76;30.41;-30.0;38.06;17.91;105.84;0.0;60.212;39.468742;-0.341413;-51.5;NaN;5.31;4.4;282.37;12 / 33;4465;2021-10-20 19:26:47:897
-6.627;-14.909;2.24;-9.3518;0.8284;2.8395;2.6291;5.8539;-5.7258;-0.6781;1.9385;-0.4416;0.0;-9.3;33.0;-26.4;38.06;17.91;105.84;0.0;60.839;39.468742;-0.341413;-51.5;NaN;5.31;4.4;282.37;12 / 33;4514;2021-10-20 19:26:47:946
1.302;-12.099;-3.8989;-9.4427;0.9816;-2.4517;2.1992;2.9546;2.5612;0.463;0.4698;0.509;0.0;-12.9;36.3;-18.49;22.54;-5.75;104.55;0.0;60.839;39.468742;-0.341413;-51.5;NaN;5.31;4.4;282.37;12 / 33;4564;2021-10-20 19:26:47:996
0.0191;-7.9541;0.9161;-9.4571;1.2833;2.2505;2.1992;2.9546;2.5612;0.3509;-1.1007;0.8894;0.0;-12.9;36.3;-18.49;22.54;-5.75;104.55;0.0;60.839;39.468742;-0.341413;-51.5;NaN;5.31;4.4;282.37;12 / 33;4615;2021-10-20 19:26:48:047
-0.971;-4.9969;0.5051;-9.4188;2.6384;0.723;1.126;-4.1731;-1.8807;0.3509;-1.1007;0.8894;0.0;-16.74;38.64;-8.94;19.04;-7.52;76.61;0.0;60.839;39.468742;-0.341413;-51.5;NaN;5.31;4.4;282.37;12 / 33;4665;2021-10-20 19:26:48:097
-1.1561;-3.777;1.11;-9.4188;2.6384;0.723;1.5635;-4.834;-0.8924;-0.052;-1.8532;0.3886;0.0;-19.09;38.76;-1.91;6.06;-15.61;85.61;0.0;60.839;39.468742;-0.341413;-51.5;NaN;5.31;4.4;282.37;12 / 33;4715;2021-10-20 19:26:48:147
-0.703;-5.584;-2.922;-9.323;2.2936;1.9968;0.0878;-6.0923;0.2502;0.29;-4.2397;1.1487;0.0;-19.09;38.76;-1.91;6.06;-15.61;85.61;0.0;60.839;39.468742;-0.341413;-51.5;NaN;5.31;4.4;282.37;12 / 33;4764;2021-10-20 19:26:48:196
-0.703;-5.584;-2.922;-8.0589;0.5028;-5.5641;0.0878;-6.0923;0.2502;0.29;-4.2397;1.1487;0.0;-20.4;37.86;-0.11;342.97;-2.94;124.62;0.0;61.335;39.468742;-0.341413;-51.5;NaN;5.31;4.4;282.37;12 / 33;4814;2021-10-20 19:26:48:246
2.0321;-16.547;-16.4509;-7.6471;-0.9912;-6.0573;-2.9388;6.8258;15.4036;-2.2737;0.7102;-0.0587;0.0;-20.4;37.86;-0.11;342.97;-2.94;124.62;0.0;61.335;39.468742;-0.341413;-51.5;NaN;5.31;4.4;282.37;12 / 33;4865;2021-10-20 19:26:48:297
-1.005;-7.104;-6.527;-5.4109;5.2768;-6.2537;0.2806;-2.388;4.1344;-2.2737;0.7102;-0.0587;0.0;-20.81;37.69;-3.41;344.92;5.8;128.38;0.0;61.335;39.468742;-0.341413;-51.5;NaN;5.31;4.4;282.37;12 / 33;4914;2021-10-20 19:26:48:346
-4.966;-18.086;8.246;-9.6247;-0.0383;1.8962;0.2806;-2.388;4.1344;-2.0941;0.8228;0.0638;0.0;-20.29;37.91;-7.31;334.54;-32.54;139.13;0.0;61.335;39.468742;-0.341413;-51.5;NaN;5.31;4.4;282.37;12 / 33;4964;2021-10-20 19:26:48:396
2.556;-5.4431;1.7351;-9.6247;-0.0383;1.8962;-0.7928;7.3687;-6.5279;0.3337;-1.1025;-0.1302;0.0;-20.29;37.91;-7.31;334.54;-32.54;139.13;0.0;61.335;39.468742;-0.341413;-51.5;NaN;5.31;4.4;282.37;12 / 33;5014;2021-10-20 19:26:48:446
-3.92;-11.9411;-0.6409;-6.0525;-5.6312;5.2768;-5.2821;-4.7181;-6.7414;0.3337;-1.1025;-0.1302;0.0;-18.96;37.99;-10.26;29.38;35.04;48.92;0.0;61.335;39.468742;-0.341413;-51.5;NaN;5.31;4.4;282.37;12 / 33;5065;2021-10-20 19:26:48:497
1.941;-10.2851;0.114;-9.7827;0.5507;-0.4118;-0.4335;1.9775;-0.94;1.9575;-2.7401;-0.1985;0.0;-18.11;37.39;-14.59;29.38;35.04;48.92;0.0;61.335;39.468746;-0.341428;-51.6;NaN;4.75;4.3;265.75;12 / 33;5115;2021-10-20 19:26:48:547
1.941;-10.2851;0.114;-9.754;0.4501;-0.9002;-0.4335;1.9775;-0.94;1.0241;0.4388;-0.8748;0.0;-18.11;37.39;-14.59;29.38;35.04;48.92;0.0;61.335;39.468746;-0.341428;-51.6;NaN;4.75;4.3;265.75;12 / 33;5165;2021-10-20 19:26:48:597
1.608;-9.1339;0.947;-9.7971;0.3974;-0.067;0.0145;-0.9269;0.2144;1.0241;0.4388;-0.8748;0.0;-16.86;35.29;-19.8;28.29;-2.63;95.27;0.0;61.435;39.468746;-0.341428;-51.6;NaN;4.75;4.3;265.75;12 / 33;5214;2021-10-20 19:26:48:646
-0.564;-9.411;0.035;-9.7971;0.3974;-0.067;0.2182;0.2309;-0.3995;0.1603;1.7304;-0.3395;0.0;-15.11;33.11;-24.0;36.45;-2.32;90.39;0.0;61.435;39.468746;-0.341428;-51.6;NaN;4.75;4.3;265.75;12 / 33;5265;2021-10-20 19:26:48:697
0.2681;-10.572;-0.205;-9.7588;-0.8523;0.4741;-0.8511;0.0219;-0.8805;0.1007;1.6466;-0.1485;0.0;-15.11;33.11;-24.0;36.45;-2.32;90.39;0.0;61.435;39.468746;-0.341428;-51.6;NaN;4.75;4.3;265.75;12 / 33;5315;2021-10-20 19:26:48:747
2.75;-11.0629;-0.366;-9.6678;-1.0918;-1.245;-0.8511;0.0219;-0.8805;0.1007;1.6466;-0.1485;0.0;-12.79;31.31;-27.19;40.87;4.99;87.22;0.0;61.435;39.468746;-0.341428;-51.6;NaN;4.75;4.3;265.75;12 / 33;5364;2021-10-20 19:26:48:796
3.4751;-11.716;-1.625;-9.3422;-2.6576;-1.3551;-2.5835;1.2602;0.014;-0.1368;1.972;-0.3532;0.0;-9.66;30.79;-28.86;39.02;15.72;98.25;0.0;61.435;39.468746;-0.341428;-51.6;NaN;4.75;4.3;265.75;12 / 33;5414;2021-10-20 19:26:48:846
3.4751;-11.716;-1.625;-8.6766;-3.984;-2.2505;-2.9952;1.9295;1.1567;-0.1368;1.972;-0.3532;0.0;-9.66;30.79;-28.86;39.02;15.72;98.25;0.0;61.435;39.468746;-0.341428;-51.6;NaN;4.75;4.3;265.75;12 / 33;5464;2021-10-20 19:26:48:896
5.888;-13.842;-4.6219;-9.7109;-1.1205;0.8092;-3.3506;2.0166;1.5122;-0.8367;2.5304;-0.7562;0.0;-7.99;31.14;-29.29;37.12;23.96;104.54;0.0;58.64;39.468746;-0.341428;-51.6;NaN;4.75;4.3;265.75;12 / 33;5515;2021-10-20 19:26:48:947
-3.109;-12.025;0.768;-9.7109;-1.1205;0.8092;-3.3506;2.0166;1.5122;-0.5712;1.8138;-0.3642;0.0;-7.99;31.14;-29.29;37.12;23.96;104.54;0.0;58.64;39.468746;-0.341428;-51.6;NaN;4.75;4.3;265.75;12 / 33;5564;2021-10-20 19:26:48:996
-0.612;-14.1;2.898;-9.2512;2.2984;2.2984;5.6811;7.3083;-5.2864;-0.5712;1.8138;-0.3642;0.0;-10.26;33.6;-25.31;36.59;6.56;85.24;0.0;58.64;39.468746;-0.341428;-51.6;NaN;4.75;4.3;265.75;12 / 33;5614;2021-10-20 19:26:49:046
0.5741;-12.8441;-2.3599;-9.2751;-0.5842;-3.1316;0.2613;2.5919;3.381;0.5824;-0.1655;0.753;0.0;-15.06;37.09;-16.99;16.53;3.42;108.66;0.0;58.64;39.468746;-0.341428;-51.6;NaN;4.75;4.3;265.75;12 / 33;5665;2021-10-20 19:26:49:097
-1.3091;-4.8971;1.424;-9.5816;0.8715;1.9058;1.0607;-3.3493;-1.8576;0.4194;-1.777;0.7136;0.0;-15.06;37.09;-16.99;16.53;3.42;108.66;0.0;58.64;39.468746;-0.341428;-51.6;NaN;4.75;4.3;265.75;12 / 33;5714;2021-10-20 19:26:49:146
-1.3091;-4.8971;1.424;-9.5337;2.2458;0.4932;1.0607;-3.3493;-1.8576;0.4194;-1.777;0.7136;0.0;-18.66;38.51;-7.74;17.2;-5.1;78.75;0.0;58.64;39.468746;-0.341428;-51.6;NaN;4.75;4.3;265.75;12 / 33;5765;2021-10-20 19:26:49:197
-1.405;-4.9571;0.5981;-8.576;3.8164;2.8491;1.5928;-4.8483;-1.0765;0.1019;-2.6483;0.3252;0.0;-20.76;38.04;-0.49;1.93;-13.24;87.04;0.0;63.094;39.468746;-0.341428;-51.6;NaN;4.75;4.3;265.75;12 / 33;5815;2021-10-20 19:26:49:247
-1.644;-3.2381;0.392;-8.576;3.8164;2.8491;1.5928;-4.8483;-1.0765;0.1019;-2.6483;0.3252;0.0;-20.76;38.04;-0.49;1.93;-13.24;87.04;0.0;63.094;39.468746;-0.341428;-51.6;NaN;4.75;4.3;265.75;12 / 33;5864;2021-10-20 19:26:49:296
-0.9739;-12.054;-7.559;-8.5808;0.9146;-4.6543;0.4266;-5.0459;1.2511;0.0091;-3.9106;1.3457;0.0;-22.5;37.56;1.31;342.51;-5.35;118.48;0.0;63.094;39.468746;-0.341428;-51.6;NaN;4.75;4.3;265.75;12 / 33;5915;2021-10-20 19:26:49:347
0.287;-16.176;-11.4551;-6.9432;-0.407;-6.9145;-1.1528;5.5641;12.8267;-2.2857;0.5919;0.0366;0.0;-22.5;37.56;1.31;342.51;-5.35;118.48;0.0;63.094;39.468746;-0.341428;-51.6;NaN;4.75;4.3;265.75;12 / 33;5964;2021-10-20 19:26:49:396
-5.17;-11.197;-1.819;-8.3749;2.5762;-4.4053;2.3882;1.5824;3.3815;-2.2857;0.5919;0.0366;0.0;-22.8;38.16;-1.74;339.06;2.38;134.88;0.0;63.094;39.468746;-0.341428;-51.6;NaN;4.75;4.3;265.75;12 / 33;6015;2021-10-20 19:26:49:447
-5.17;-11.197;-1.819;-8.8011;0.4788;4.3;2.3882;1.5824;3.3815;-1.5749;0.3637;0.0608;0.0;-21.36;38.51;-4.69;350.55;-15.23;117.75;0.0;63.094;39.468746;-0.341428;-51.6;NaN;4.75;4.3;265.75;12 / 33;6065;2021-10-20 19:26:49:497
0.203;-7.085;0.0671;-7.4795;-6.3446;-0.0144;-0.4183;1.4993;-8.2535;0.6386;-1.3192;-0.1621;0.0;-21.36;38.51;-4.69;350.55;-15.23;117.75;0.0;63.094;39.46894;-0.341282;-51.6;NaN;5.7;7.1;304.32;12 / 33;6114;2021-10-20 19:26:49:546
3.6281;-9.004;3.525;-7.4795;-6.3446;-0.0144;-6.429;-3.1099;-2.5505;0.6386;-1.3192;-0.1621;0.0;-20.1;38.4;-8.76;12.06;40.31;90.11;0.0;59.154;39.46894;-0.341282;-51.6;NaN;5.7;7.1;304.32;12 / 33;6165;2021-10-20 19:26:49:597
-0.303;-10.134;-0.9311;-9.7061;1.0487;-0.9098;-0.7419;0.5038;-0.6077;1.6438;-2.1204;-0.4477;0.0;-19.56;37.86;-14.7;12.06;40.31;90.11;0.0;59.154;39.46894;-0.341282;-51.6;NaN;5.7;7.1;304.32;12 / 33;6214;2021-10-20 19:26:49:646
0.38;-9.282;-2.013;-9.5433;-0.0527;-2.2505;-0.7419;0.5038;-0.6077;1.6438;-2.1204;-0.4477;0.0;-19.56;37.86;-14.7;12.06;40.31;90.11;0.0;59.154;39.46894;-0.341282;-51.6;NaN;5.7;7.1;304.32;12 / 33;6265;2021-10-20 19:26:49:697
0.605;-9.677;-0.303;-9.6055;-1.834;0.7326;-2.023;-0.7511;-1.5902;0.2666;1.4515;-0.6165;0.0;-18.6;36.11;-20.29;28.97;10.78;85.64;0.0;59.154;39.46894;-0.341282;-51.6;NaN;5.7;7.1;304.32;12 / 33;6315;2021-10-20 19:26:49:747
0.605;-9.677;-0.303;-9.7779;-0.5794;0.4549;-2.023;-0.7511;-1.5902;0.224;1.5428;-0.209;0.0;-18.6;36.11;-20.29;28.97;10.78;85.64;0.0;59.154;39.46894;-0.341282;-51.6;NaN;5.7;7.1;304.32;12 / 33;6364;2021-10-20 19:26:49:796
0.4451;-9.624;0.6341;-9.7348;0.2107;-1.154;-0.664;-0.3568;-1.4375;0.224;1.5428;-0.209;0.0;-16.69;34.69;-23.46;33.52;3.39;87.34;0.0;59.154;39.46894;-0.341282;-51.6;NaN;5.7;7.1;304.32;12 / 33;6414;2021-10-20 19:26:49:846
0.2801;-11.072;-1.5701;-9.4236;-2.6576;-0.5794;-0.106;1.2857;0.784;0.3209;1.4824;-0.2157;0.0;-14.16;33.11;-25.99;36.53;-1.23;96.76;0.0;60.32;39.46894;-0.341282;-51.6;NaN;5.7;7.1;304.32;12 / 33;6465;2021-10-20 19:26:49:897
4.655;-12.6979;-1.1771;-9.4236;-2.6576;-0.5794;-4.2957;2.9203;0.4496;-0.0373;1.8987;-0.3558;0.0;-14.16;33.11;-25.99;36.53;-1.23;96.76;0.0;60.32;39.46894;-0.341282;-51.6;NaN;5.7;7.1;304.32;12 / 33;6515;2021-10-20 19:26:49:947
5.763;-15.345;-3.236;-8.9974;-3.7589;-1.0726;-4.2957;2.9203;0.4496;-0.0373;1.8987;-0.3558;0.0;-10.8;32.29;-28.44;37.12;22.53;96.8;0.0;60.32;39.46894;-0.341282;-51.6;NaN;5.7;7.1;304.32;12 / 33;6564;2021-10-20 19:26:49:996
1.421;-11.393;-0.49;-9.2177;-2.1691;-2.5522;-2.9283;4.019;3.5231;-0.718;2.5076;-0.6912;0.0;-9.66;33.11;-27.41;33.04;12.78;105.48;0.0;60.32;39.46894;-0.341282;-51.6;NaN;5.7;7.1;304.32;12 / 33;6614;2021-10-20 19:26:50:046
-5.859;-15.032;3.14;-8.6718;4.5538;0.4501;3.6821;0.8181;-1.5783;-0.2496;1.2871;0.106;0.0;-9.66;33.11;-27.41;33.04;12.78;105.48;0.0;60.32;39.46894;-0.341282;-51.6;NaN;5.7;7.1;304.32;12 / 33;6664;2021-10-20 19:26:50:096
-5.859;-15.032;3.14;-9.6438;-1.743;-0.34;3.6821;0.8181;-1.5783;-0.2496;1.2871;0.106;0.0;-13.2;35.89;-20.89;33.04;12.78;105.48;0.0;60.32;39.46894;-0.341282;-51.6;NaN;5.7;7.1;304.32;12 / 33;6715;2021-10-20 19:26:50:147
0.509;-11.661;-4.6601;-9.7971;-0.2777;-0.3256;-1.1296;2.296;-0.5466;0.4763;-0.6119;0.9314;0.0;-13.2;35.89;-20.89;33.04;12.78;105.48;0.0;61.97;39.46894;-0.341282;-51.6;NaN;5.7;7.1;304.32;12 / 33;6764;2021-10-20 19:26:50:196
-0.5089;-8.3771;0.8711;-9.7971;-0.2777;-0.3256;0.7828;-1.4003;-1.5699;0.4763;-0.6119;0.9314;0.0;-17.59;38.59;-11.59;16.09;1.62;91.9;0.0;61.97;39.46894;-0.341282;-51.6;NaN;5.7;7.1;304.32;12 / 33;6815;2021-10-20 19:26:50:247
-1.115;-4.6549;-0.023;-9.3422;2.3655;1.8148;1.2069;-5.1421;-0.6043;0.3886;-1.7853;0.4231;0.0;-19.86;38.51;-3.19;11.49;-13.96;79.01;0.0;61.97;39.46894;-0.341282;-51.6;NaN;5.7;7.1;304.32;12 / 33;6864;2021-10-20 19:26:50:296
-1.5791;-3.525;1.335;-9.1411;3.1268;1.6855;1.2069;-5.1421;-0.6043;0.1632;-3.1552;0.4928;0.0;-19.86;38.51;-3.19;11.49;-13.96;79.01;0.0;61.97;39.46894;-0.341282;-51.6;NaN;5.7;7.1;304.32;12 / 33;6915;2021-10-20 19:26:50:347
-1.395;-6.527;-3.116;-9.2177;3.1939;-1.0008;0.87;-6.7156;-1.3012;0.1632;-3.1552;0.4928;0.0;-21.36;37.74;1.69;3.59;-18.59;79.55;0.0;61.97;39.46894;-0.341282;-51.6;NaN;5.7;7.1;304.32;12 / 33;6965;2021-10-20 19:26:50:397
-1.395;-6.527;-3.116;-7.2113;-0.1772;-6.6463;-0.065;1.2446;6.7288;-0.3651;-3.0506;0.9899;0.0;-22.91;37.44;0.54;336.36;1.03;132.67;0.0;61.97;39.46894;-0.341282;-51.6;NaN;5.7;7.1;304.32;12 / 33;7014;2021-10-20 19:26:50:446
1.235;-17.1881;-18.4309;-9.414;-1.3599;-2.3798;-0.065;1.2446;6.7288;-2.2654;1.0291;-0.0444;0.0;-22.91;37.44;0.54;336.36;1.03;132.67;0.0;61.97;39.46894;-0.341282;-51.6;NaN;5.7;7.1;304.32;12 / 33;7065;2021-10-20 19:26:50:497
-1.5941;-9.648;-6.1871;-9.414;-1.3599;-2.3798;-2.9293;3.1537;1.0307;-2.2654;1.0291;-0.0444;0.0;-23.04;38.04;-3.49;356.18;7.97;104.19;0.0;61.012;39.46894;-0.341282;-51.6;NaN;5.7;7.1;304.32;12 / 33;7114;2021-10-20 19:26:50:546
-0.428;-11.563;6.008;-8.9687;2.1452;3.3423;2.8398;6.4852;-8.9203;-0.9899;0.1552;-0.1936;0.0;-23.04;38.04;-3.49;356.18;7.97;104.19;0.0;61.012;39.46894;-0.341282;-51.6;NaN;5.7;7.1;304.32;12 / 33;7164;2021-10-20 19:26:50:596
1.4261;-5.191;0.7751;-8.7676;3.7206;2.332;2.8398;6.4852;-8.9203;-0.9899;0.1552;-0.1936;0.0;-21.9;38.21;-5.81;356.18;7.97;104.19;0.0;61.012;39.46894;-0.341282;-51.6;NaN;5.7;7.1;304.32;12 / 33;7215;2021-10-20 19:26:50:647
2.039;-11.922;-0.56;-9.5481;-1.4796;1.6855;-2.4444;-4.1942;-3.4203;1.3027;-2.1252;-0.0935;0.0;-20.94;37.31;-10.2;18.9;8.68;79.99;0.0;61.012;39.46894;-0.341282;-51.6;NaN;5.7;7.1;304.32;12 / 33;7265;2021-10-20 19:26:50:697
2.039;-11.922;-0.56;-9.7252;0.0;-1.2546;-3.2436;2.2965;-0.9001;1.5488;-1.4993;-0.9023;0.0;-20.94;37.31;-10.2;18.9;8.68;79.99;0.0;61.012;39.46894;-0.341282;-51.6;NaN;5.7;7.1;304.32;12 / 33;7315;2021-10-20 19:26:50:747
-0.732;-9.689;-3.334;-9.2512;-3.1364;0.8954;-0.0075;-0.0585;2.4746;1.5488;-1.4993;-0.9023;0.0;-19.5;36.49;-15.79;20.47;0.0;97.35;0.0;61.012;39.46894;-0.341282;-51.6;NaN;5.7;7.1;304.32;12 / 33;7364;2021-10-20 19:26:50:796
2.75;-9.4849;0.8561;-9.2512;-3.1364;0.8954;-0.0075;-0.0585;2.4746;0.2388;1.7082;-0.7892;0.0;-18.41;35.7;-20.51;30.01;18.65;84.47;0.0;61.026;39.46894;-0.341282;-51.6;NaN;5.7;7.1;304.32;12 / 33;7414;2021-10-20 19:26:50:846
0.2051;-9.3161;0.6221;-9.7923;0.5219;-0.182;-0.2975;0.1549;-0.2211;-0.0466;1.8516;-0.2464;0.0;-18.41;35.7;-20.51;30.01;18.65;84.47;0.0;61.026;39.46894;-0.341282;-51.6;NaN;5.7;7.1;304.32;12 / 33;7465;2021-10-20 19:26:50:897
-0.078;-10.034;-0.888;-9.8019;0.249;-0.1437;0.5093;0.3588;-0.6001;-0.0466;1.8516;-0.2464;0.0;-17.16;34.31;-23.16;34.14;-1.46;90.84;0.0;61.026;39.46894;-0.341282;-51.6;NaN;5.7;7.1;304.32;12 / 33;7515;2021-10-20 19:26:50:947
2.9081;-12.42;-1.2731;-9.6726;-1.0965;-1.1875;-1.0134;1.9987;0.8428;0.2368;1.3372;-0.045;0.0;-17.16;34.31;-23.16;34.14;-1.46;90.84;0.0;61.026;39.46894;-0.341282;-51.6;NaN;5.7;7.1;304.32;12 / 33;7564;2021-10-20 19:26:50:996
2.9081;-12.42;-1.2731;-8.9208;-3.984;-0.8619;-1.0134;1.9987;0.8428;0.2368;1.3372;-0.045;0.0;-14.76;32.89;-25.39;33.45;6.42;97.0;0.0;61.026;39.46894;-0.341282;-51.6;NaN;5.7;7.1;304.32;12 / 33;7614;2021-10-20 19:26:51:046
5.5121;-12.8171;-1.503;-9.1698;-2.4708;-2.4612;-4.9027;2.3648;0.5145;-0.3142;2.0453;-0.4403;0.0;-11.76;32.89;-27.24;35.5;23.97;95.52;0.0;61.026;39.46894;-0.341282;-51.6;NaN;5.7;7.1;304.32;12 / 33;7664;2021-10-20 19:26:51:096
2.7071;-12.6911;-2.7161;-9.1698;-2.4708;-2.4612;-2.9474;4.9565;3.0247;-0.7513;2.3378;-0.6491;0.0;-11.76;32.89;-27.24;35.5;23.97;95.52;0.0;55.974;39.46884;-0.341295;-51.7;NaN;2.97;5.3;301.81;12 / 33;7714;2021-10-20 19:26:51:146
-6.924;-11.762;0.4451;-9.4571;2.5857;-0.2825;8.3258;2.1154;-1.5685;-0.7513;2.3378;-0.6491;0.0;-12.54;34.09;-25.74;41.27;-15.29;91.71;0.0;55.974;39.46884;-0.341295;-51.7;NaN;2.97;5.3;301.81;12 / 33;7765;2021-10-20 19:26:51:197
2.2571;-11.0801;0.311;-9.2608;1.4317;2.9066;-1.3714;1.3506;-1.2332;0.1232;0.2662;0.7175;0.0;-16.44;36.71;-17.7;31.99;-8.39;72.58;0.0;55.974;39.46884;-0.341295;-51.7;NaN;2.97;5.3;301.81;12 / 33;7815;2021-10-20 19:26:51:247
-0.6911;-11.815;-0.5449;-9.4427;0.1963;-2.6288;-1.3714;1.3506;-1.2332;0.3296;-1.2019;1.0523;0.0;-16.44;36.71;-17.7;31.99;-8.39;72.58;0.0;55.974;39.46884;-0.341295;-51.7;NaN;2.97;5.3;301.81;12 / 33;7865;2021-10-20 19:26:51:297
-1.598;-4.629;0.7391;-9.4667;1.7526;1.8579;1.0423;-0.5993;-1.5606;0.3296;-1.2019;1.0523;0.0;-19.61;38.76;-7.86;3.48;-1.15;105.56;0.0;55.974;39.46884;-0.341295;-51.7;NaN;2.97;5.3;301.81;12 / 33;7914;2021-10-20 19:26:51:346
-1.598;-4.629;0.7391;-9.3326;2.9401;-0.6273;1.0423;-0.5993;-1.5606;0.241;-1.84;0.084;0.0;-19.61;38.76;-7.86;3.48;-1.15;105.56;0.0;55.974;39.46884;-0.341295;-51.7;NaN;2.97;5.3;301.81;12 / 33;7964;2021-10-20 19:26:51:396
-1.35;-3.93;0.3371;-9.0692;3.4955;1.3072;1.1888;-5.3272;-0.3747;0.1658;-3.6035;0.7908;0.0;-22.14;38.16;-0.71;3.48;-1.15;105.56;0.0;55.974;39.46884;-0.341295;-51.7;NaN;2.97;5.3;301.81;12 / 33;8015;2021-10-20 19:26:51:447
-0.99;-3.645;-0.828;-9.0692;3.4955;1.3072;-0.0596;-6.103;0.3407;0.1658;-3.6035;0.7908;0.0;-23.76;37.31;3.6;358.82;-20.88;81.8;0.0;62.621;39.46884;-0.341295;-51.7;NaN;2.97;5.3;301.81;12 / 33;8065;2021-10-20 19:26:51:497
-0.1309;-14.244;-12.894;-7.8195;0.7087;-5.8754;-1.1807;4.5775;11.7726;-1.2734;-1.2594;0.3186;0.0;-23.76;37.31;3.6;358.82;-20.88;81.8;0.0;62.621;39.46884;-0.341295;-51.7;NaN;2.97;5.3;301.81;12 / 33;8114;2021-10-20 19:26:51:546
1.397;-13.239;-4.1569;-7.4891;-0.4645;-6.3159;-1.1807;4.5775;11.7726;-1.2734;-1.2594;0.3186;0.0;-24.36;37.5;0.66;337.4;-4.14;126.92;0.0;62.621;39.46884;-0.341295;-51.7;NaN;2.97;5.3;301.81;12 / 33;8165;2021-10-20 19:26:51:597
-4.8199;-15.118;2.558;-8.0732;3.5817;-4.2617;-0.1427;-0.21;1.852;-2.0035;1.0013;-0.2034;0.0;-23.94;37.86;-2.64;342.49;-21.42;117.83;0.0;62.621;39.46884;-0.341295;-51.7;NaN;2.97;5.3;301.81;12 / 33;8215;2021-10-20 19:26:51:647
-4.8199;-15.118;2.558;-9.7396;0.838;-0.7949;0.7741;6.3064;-10.0358;-0.3806;-0.3424;-0.2689;0.0;-23.94;37.86;-2.64;342.49;-21.42;117.83;0.0;62.621;39.46884;-0.341295;-51.7;NaN;2.97;5.3;301.81;12 / 33;8265;2021-10-20 19:26:51:697
-1.747;-5.0359;2.118;-9.0692;-1.8531;3.2465;0.7741;6.3064;-10.0358;-0.3806;-0.3424;-0.2689;0.0;-23.46;37.69;-5.89;6.54;-4.9;94.67;0.0;62.621;39.46884;-0.341295;-51.7;NaN;2.97;5.3;301.81;12 / 33;8314;2021-10-20 19:26:51:746
-0.627;-11.673;1.34;-9.0692;-1.8531;3.2465;-2.617;-2.3838;-5.0926;1.5536;-2.1889;-0.0997;0.0;-23.46;37.69;-5.89;6.54;-4.9;94.67;0.0;60.347;39.46884;-0.341295;-51.7;NaN;2.97;5.3;301.81;12 / 33;8364;2021-10-20 19:26:51:796
1.6061;-9.976;-0.825;-9.5912;-1.8004;-0.9577;-3.2992;1.5555;-0.3154;1.1012;-0.1947;-0.9767;0.0;-22.2;37.31;-11.64;25.36;10.89;70.3;0.0;60.347;39.46884;-0.341295;-51.7;NaN;2.97;5.3;301.81;12 / 33;8415;2021-10-20 19:26:51:847
2.118;-8.6359;0.198;-9.4236;0.1963;-2.7102;-3.2992;1.5555;-0.3154;1.1012;-0.1947;-0.9767;0.0;-20.94;35.59;-17.21;16.53;-1.15;106.05;0.0;60.347;39.46884;-0.341295;-51.7;NaN;2.97;5.3;301.81;12 / 33;8465;2021-10-20 19:26:51:897
-0.21;-9.3611;-0.112;-9.7348;-1.1492;0.1915;-2.6107;-1.112;-1.1456;0.1675;1.7887;-0.634;0.0;-20.94;35.59;-17.21;16.53;-1.15;106.05;0.0;60.347;39.46884;-0.341295;-51.7;NaN;2.97;5.3;301.81;12 / 33;8514;2021-10-20 19:26:51:946
-0.21;-9.3611;-0.112;-9.8019;-0.0718;0.34;0.1609;-0.8978;-1.1233;0.1675;1.7887;-0.634;0.0;-20.29;34.2;-21.11;30.67;6.73;88.87;0.0;60.347;39.46884;-0.341295;-51.7;NaN;2.97;5.3;301.81;12 / 33;8564;2021-10-20 19:26:51:996
-0.112;-10.108;0.0281;-9.7396;-0.5267;-1.0008;0.1872;0.2908;-0.5488;0.1466;1.6345;-0.2843;0.0;-18.41;32.59;-24.11;36.61;0.42;88.01;0.0;60.347;39.46884;-0.341295;-51.7;NaN;2.97;5.3;301.81;12 / 33;8615;2021-10-20 19:26:52:047
0.9281;-11.616;-1.986;-9.7396;-0.5267;-1.0008;0.1872;0.2908;-0.5488;0.1309;1.2502;0.0833;0.0;-18.41;32.59;-24.11;36.61;0.42;88.01;0.0;56.52;39.46884;-0.341295;-51.7;NaN;2.97;5.3;301.81;12 / 33;8665;2021-10-20 19:26:52:097
4.952;-12.4219;-1.11;-9.2656;-3.1125;-0.7901;-3.6946;2.3837;0.4169;0.1309;1.2502;0.0833;0.0;-15.71;31.99;-27.0;35.26;18.51;94.87;0.0;56.52;39.468792;-0.341307;-51.7;NaN;2.83;4.6;254.14;12 / 33;8714;2021-10-20 19:26:52:146
4.14;-14.601;-3.8719;-9.2416;-2.8826;-1.5562;-3.6946;2.3837;0.4169;-0.3465;2.0819;-0.4943;0.0;-15.71;31.99;-27.0;35.26;18.51;94.87;0.0;56.52;39.468792;-0.341307;-51.7;NaN;2.83;4.6;254.14;12 / 33;8764;2021-10-20 19:26:52:196
1.833;-10.9309;-0.366;-9.1219;-2.083;-2.9401;-3.2213;4.8595;3.0203;-0.8213;2.164;-0.5455;0.0;-13.99;32.34;-27.49;35.26;18.51;94.87;0.0;56.52;39.468792;-0.341307;-51.7;NaN;2.83;4.6;254.14;12 / 33;8814;2021-10-20 19:26:52:246
1.833;-10.9309;-0.366;-8.7532;4.4245;0.1245;-1.302;1.3041;2.4754;-0.8213;2.164;-0.5455;0.0;-14.59;34.14;-24.41;25.75;12.26;107.86;0.0;56.52;39.468792;-0.341307;-51.7;NaN;2.83;4.6;254.14;12 / 33;8864;2021-10-20 19:26:52:296
-6.276;-16.566;2.8721;-9.596;-1.901;-0.68;2.8428;5.815;-5.3083;-0.0077;0.6874;0.4058;0.0;-14.59;34.14;-24.41;25.75;12.26;107.86;0.0;56.52;39.468792;-0.341307;-51.7;NaN;2.83;4.6;254.14;12 / 33;8915;2021-10-20 19:26:52:347
2.51;-10.95;-4.7989;-9.596;-1.901;-0.68;2.8428;5.815;-5.3083;-0.0077;0.6874;0.4058;0.0;-17.81;36.9;-16.86;21.41;11.18;94.05;0.0;56.52;39.468792;-0.341307;-51.7;NaN;2.83;4.6;254.14;12 / 33;8965;2021-10-20 19:26:52:397
-0.995;-7.338;1.101;-9.7636;0.4645;-0.7853;1.2034;1.126;-0.008;0.261;-0.4177;0.6017;0.0;-21.24;37.31;-8.46;9.93;-2.71;94.6;0.0;61.885;39.468792;-0.341307;-51.7;NaN;2.83;4.6;254.14;12 / 33;9014;2021-10-20 19:26:52:446
-0.9469;-5.0689;-0.007;-9.4044;2.399;1.4174;1.6046;-5.0713;-1.4471;0.2256;-1.3167;0.093;0.0;-21.24;37.31;-8.46;9.93;-2.71;94.6;0.0;61.885;39.468792;-0.341307;-51.7;NaN;2.83;4.6;254.14;12 / 33;9064;2021-10-20 19:26:52:496
-1.565;-3.607;0.8681;-9.2416;2.988;1.3695;1.6046;-5.0713;-1.4471;0.2256;-1.3167;0.093;0.0;-23.16;36.9;-1.09;8.74;-17.74;81.57;0.0;61.885;39.468792;-0.341307;-51.7;NaN;2.83;4.6;254.14;12 / 33;9114;2021-10-20 19:26:52:546
-1.565;-3.607;0.8681;-9.2512;3.0933;-0.9912;1.4831;-6.1855;-1.5595;0.4668;-3.6303;0.9956;0.0;-23.16;36.9;-1.09;8.74;-17.74;81.57;0.0;61.885;39.468792;-0.341307;-51.7;NaN;2.83;4.6;254.14;12 / 33;9164;2021-10-20 19:26:52:596
-1.187;-6.776;-2.829;-7.7237;-0.8092;-5.9855;0.3076;-2.9849;2.314;-0.919;-1.6562;0.4454;0.0;-24.71;36.06;1.01;352.1;-18.39;96.12;0.0;61.885;39.468792;-0.341307;-51.7;NaN;2.83;4.6;254.14;12 / 33;9215;2021-10-20 19:26:52:647
2.996;-15.5771;-14.6921;-8.8298;-0.9385;-4.1611;-3.0447;5.4283;10.7234;-0.919;-1.6562;0.4454;0.0;-25.31;35.76;-1.69;339.94;4.73;127.77;0.0;61.885;39.468792;-0.341307;-51.7;NaN;2.83;4.6;254.14;12 / 33;9265;2021-10-20 19:26:52:697
-0.191;-9.598;-7.654;-8.8298;-0.9385;-4.1611;-3.0447;5.4283;10.7234;-1.9486;0.8991;-0.3219;0.0;-25.31;35.76;-1.69;339.94;4.73;127.77;0.0;57.538;39.468792;-0.341307;-51.7;NaN;2.83;4.6;254.14;12 / 33;9314;2021-10-20 19:26:52:746
-3.6521;-16.7119;10.388;-9.3518;2.7054;1.1827;2.1282;-0.2875;3.7806;-0.4614;-0.2827;-0.3074;0.0;-25.26;36.3;-5.04;16.17;-16.01;82.79;0.0;57.538;39.468792;-0.341307;-51.7;NaN;2.83;4.6;254.14;12 / 33;9364;2021-10-20 19:26:52:796
0.05;-3.906;-0.234;-7.9966;4.276;-3.735;2.6568;-3.2509;-0.285;-0.4614;-0.2827;-0.3074;0.0;-24.54;36.36;-6.9;348.71;-25.85;115.04;0.0;57.538;39.468792;-0.341307;-51.7;NaN;2.83;4.6;254.14;12 / 33;9415;2021-10-20 19:26:52:847
1.271;-12.971;0.3971;-8.9447;-1.3695;3.7828;-2.5005;0.5664;-6.5458;1.2225;-1.8206;0.1665;0.0;-24.54;36.36;-6.9;348.71;-25.85;115.04;0.0;57.538;39.468792;-0.341307;-51.7;NaN;2.83;4.6;254.14;12 / 33;9465;2021-10-20 19:26:52:897
1.271;-12.971;0.3971;-9.5624;-2.1117;-0.5602;-2.5005;0.5664;-6.5458;1.2225;-1.8206;0.1665;0.0;-23.51;35.89;-11.76;28.18;8.03;67.08;0.0;57.538;39.468792;-0.341307;-51.7;NaN;2.83;4.6;254.14;12 / 33;9515;2021-10-20 19:26:52:947
-0.303;-10.196;-1.852;-9.7588;-0.3256;-0.9194;-0.3603;0.4719;0.685;1.0084;-0.3432;-0.9415;0.0;-23.51;35.89;-11.76;28.18;8.03;67.08;0.0;57.538;39.468792;-0.341307;-51.7;NaN;2.83;4.6;254.14;12 / 33;9565;2021-10-20 19:26:52:997
2.039;-9.1721;1.278;-9.7588;-0.3256;-0.9194;-2.2244;-0.5969;-2.1661;0.3289;1.1606;-0.5835;0.0;-21.66;34.5;-17.51;23.91;1.9;95.38;0.0;57.538;39.468792;-0.341307;-51.7;NaN;2.83;4.6;254.14;12 / 33;9614;2021-10-20 19:26:53:046
0.4421;-9.1339;0.162;-9.7923;-0.316;-0.3831;-2.2244;-0.5969;-2.1661;0.3289;1.1606;-0.5835;0.0;-20.29;33.06;-21.96;32.21;1.85;92.24;0.0;57.538;39.468792;-0.341307;-51.7;NaN;2.83;4.6;254.14;12 / 33;9664;2021-10-20 19:26:53:096
-0.035;-9.986;-0.0281;-9.7779;-0.6321;0.431;-0.7182;-0.5749;-1.2866;0.1195;1.4197;-0.1048;0.0;-20.29;33.06;-21.96;32.21;1.85;92.24;0.0;58.908;39.46877;-0.341315;-51.8;NaN;2.47;4.3;242.18;13 / 33;9714;2021-10-20 19:26:53:146
1.184;-11.819;-1.699;-9.7013;-0.4262;-1.3791;-0.1313;1.4137;1.0023;0.2394;1.3511;-0.1209;0.0;-18.96;31.2;-24.79;38.81;3.7;87.48;0.0;58.908;39.46877;-0.341315;-51.8;NaN;2.47;4.3;242.18;13 / 33;9765;2021-10-20 19:26:53:197
1.184;-11.819;-1.699;-9.2464;-3.1077;-1.0056;-0.1313;1.4137;1.0023;0.2394;1.3511;-0.1209;0.0;-16.31;30.54;-26.81;35.38;18.48;96.21;0.0;58.908;39.46877;-0.341315;-51.8;NaN;2.47;4.3;242.18;13 / 33;9814;2021-10-20 19:26:53:246
5.043;-12.379;-1.4861;-9.1267;-3.3758;-1.2258;-3.654;2.5088;0.7331;-0.3329;1.8568;-0.3781;0.0;-16.31;30.54;-26.81;35.38;18.48;96.21;0.0;58.908;39.46877;-0.341315;-51.8;NaN;2.47;4.3;242.18;13 / 33;9865;2021-10-20 19:26:53:297
2.7431;-14.823;-4.0091;-9.1267;-3.3758;-1.2258;-1.7034;5.1053;3.1405;-0.3329;1.8568;-0.3781;0.0;-14.21;30.24;-27.96;37.1;20.13;97.65;0.0;58.908;39.46877;-0.341315;-51.8;NaN;2.47;4.3;242.18;13 / 33;9914;2021-10-20 19:26:53:346
-3.219;-10.184;-0.1481;-9.6007;1.6472;-1.1396;4.5401;0.5147;-0.9141;-0.652;2.0025;-0.499;0.0;-14.21;30.24;-27.96;37.1;20.13;97.65;0.0;58.908;39.46877;-0.341315;-51.8;NaN;2.47;4.3;242.18;13 / 33;9965;2021-10-20 19:26:53:397
0.093;-12.004;5.2871;-9.0501;3.5003;1.4126;4.5401;0.5147;-0.9141;0.0114;0.3692;0.7127;0.0;-15.54;31.56;-25.26;38.95;-9.67;96.77;0.0;59.187;39.46877;-0.341315;-51.8;NaN;2.47;4.3;242.18;13 / 33;10014;2021-10-20 19:26:53:446
-2.092;-12.518;-4.0969;-9.0261;-0.5124;-3.802;0.8891;2.2927;-6.2875;0.0114;0.3692;0.7127;0.0;-18.49;35.4;-17.7;14.86;2.99;112.84;0.0;59.187;39.46877;-0.341315;-51.8;NaN;2.47;4.3;242.18;13 / 33;10064;2021-10-20 19:26:53:496
-2.092;-12.518;-4.0969;-9.8066;0.158;-0.0718;2.4317;2.7489;3.2912;0.2988;-0.7547;0.9893;0.0;-18.49;35.4;-17.7;14.86;2.99;112.84;0.0;59.187;39.46877;-0.341315;-51.8;NaN;2.47;4.3;242.18;13 / 33;10115;2021-10-20 19:26:53:547
-0.134;-6.881;0.033;-9.6007;1.6712;-1.0965;0.4511;-4.1887;-0.6358;0.1618;-1.1296;-0.0375;0.0;-20.34;36.79;-8.64;13.57;-0.92;90.42;0.0;59.187;39.46877;-0.341315;-51.8;NaN;2.47;4.3;242.18;13 / 33;10165;2021-10-20 19:26:53:597
-0.933;-5.297;-0.5449;-9.6007;1.6712;-1.0965;0.4511;-4.1887;-0.6358;0.1618;-1.1296;-0.0375;0.0;-21.96;36.24;-1.86;359.08;-9.81;96.52;0.0;59.187;39.46877;-0.341315;-51.8;NaN;2.47;4.3;242.18;13 / 33;10214;2021-10-20 19:26:53:646
-1.634;-3.372;0.641;-8.9974;3.7254;1.1444;1.4278;-5.493;-1.3222;0.0749;-2.6308;0.3596;0.0;-21.96;36.24;-1.86;359.08;-9.81;96.52;0.0;59.187;39.46877;-0.341315;-51.8;NaN;2.47;4.3;242.18;13 / 33;10264;2021-10-20 19:26:53:696
-0.6649;-7.614;-5.22;-9.2751;1.0965;-2.9975;-0.2937;-5.364;0.7425;0.0749;-2.6308;0.3596;0.0;-23.16;36.06;0.54;346.48;-6.42;107.91;0.0;62.597;39.46877;-0.341315;-51.8;NaN;2.47;4.3;242.18;13 / 33;10315;2021-10-20 19:26:53:747
1.7351;-18.162;-16.5559;-6.6798;-0.6991;-7.1443;-0.2937;-5.364;0.7425;-0.7041;-1.8454;0.4329;0.0;-23.16;36.06;0.54;346.48;-6.42;107.91;0.0;62.597;39.46877;-0.341315;-51.8;NaN;2.47;4.3;242.18;13 / 33;10365;2021-10-20 19:26:53:797
1.7351;-18.162;-16.5559;-8.4659;1.2641;-4.7788;-2.6549;8.5793;14.6506;-2.0498;0.9661;-0.1196;0.0;-23.29;36.3;-3.0;338.36;4.09;136.92;0.0;62.597;39.46877;-0.341315;-51.8;NaN;2.47;4.3;242.18;13 / 33;10414;2021-10-20 19:26:53:846
-5.622;-9.543;-6.367;-8.5377;2.2697;4.2569;4.8325;0.2361;3.3428;-2.0498;0.9661;-0.1196;0.0;-22.56;36.79;-5.89;349.78;-7.41;119.44;0.0;62.597;39.46877;-0.341315;-51.8;NaN;2.47;4.3;242.18;13 / 33;10464;2021-10-20 19:26:53:896
-0.591;-7.899;1.692;-8.0302;-4.5873;3.2657;-0.2876;-6.1331;-6.3625;-0.5536;-0.3564;0.0737;0.0;-22.56;36.79;-5.89;349.78;-7.41;119.44;0.0;62.597;39.46877;-0.341315;-51.8;NaN;2.47;4.3;242.18;13 / 33;10515;2021-10-20 19:26:53:947
3.927;-7.405;1.668;-8.0302;-4.5873;3.2657;-0.2876;-6.1331;-6.3625;1.5571;-2.1956;0.1236;0.0;-21.96;37.2;-8.16;21.03;27.89;67.87;0.0;62.597;39.46877;-0.341315;-51.8;NaN;2.47;4.3;242.18;13 / 33;10565;2021-10-20 19:26:53:997
1.098;-10.859;-2.621;-9.6965;-1.4269;-0.2777;-3.3415;3.7042;-1.367;1.5571;-2.1956;0.1236;0.0;-20.51;35.7;-12.96;17.75;8.37;91.64;0.0;62.597;39.46877;-0.341315;-51.8;NaN;2.47;4.3;242.18;13 / 33;10614;2021-10-20 19:26:54:046
-1.6459;-9.845;-2.628;-9.414;1.7478;-2.1117;1.0951;0.1714;1.2543;1.1898;-0.1367;-1.3993;0.0;-20.51;35.7;-12.96;17.75;8.37;91.64;0.0;60.581;39.46877;-0.341315;-51.8;NaN;2.47;4.3;242.18;13 / 33;10664;2021-10-20 19:26:54:096
1.89;-9.6079;1.1441;-9.2991;-2.7342;1.4988;1.0951;0.1714;1.2543;0.1702;1.4894;-0.4562;0.0;-19.44;34.14;-18.36;24.47;-10.27;102.64;0.0;60.581;39.468754;-0.341327;-51.9;NaN;2.91;4.1;279.48;13 / 33;10714;2021-10-20 19:26:54:146
1.89;-9.6079;1.1441;-9.8066;0.0144;0.0287;-2.0774;-0.1638;-1.9988;0.1702;1.4894;-0.4562;0.0;-19.44;34.14;-18.36;24.47;-10.27;102.64;0.0;60.581;39.468754;-0.341327;-51.9;NaN;2.91;4.1;279.48;13 / 33;10765;2021-10-20 19:26:54:197
0.4901;-9.553;-0.1099;-9.8066;0.0383;0.0814;-0.5182;-0.227;-0.6783;0.1997;1.4039;-0.1123;0.0;-18.19;32.7;-21.54;33.77;-0.08;89.83;0.0;60.581;39.468754;-0.341327;-51.9;NaN;2.91;4.1;279.48;13 / 33;10815;2021-10-20 19:26:54:247
-0.22;-10.1681;-0.9139;-9.8066;0.0383;0.0814;-0.5182;-0.227;-0.6783;0.1997;1.4039;-0.1123;0.0;-15.79;31.31;-24.3;37.95;-0.22;89.52;0.0;60.581;39.468754;-0.341327;-51.9;NaN;2.91;4.1;279.48;13 / 33;10864;2021-10-20 19:26:54:296
2.5511;-11.7191;-1.299;-9.6007;-1.494;-1.3408;-0.4463;1.0102;1.1609;0.1678;1.3721;-0.0796;0.0;-15.79;31.31;-24.3;37.95;-0.22;89.52;0.0;60.581;39.468754;-0.341327;-51.9;NaN;2.91;4.1;279.48;13 / 33;10914;2021-10-20 19:26:54:346
2.9441;-11.9029;-1.596;-9.256;-3.0071;-1.2067;-3.394;2.1273;0.9536;-0.3642;2.0002;-0.3924;0.0;-12.96;30.41;-26.1;36.68;8.76;97.95;0.0;58.584;39.468754;-0.341327;-51.9;NaN;2.91;4.1;279.48;13 / 33;10965;2021-10-20 19:26:54:397
4.425;-12.705;-3.901;-9.0166;-2.5762;-2.8778;-3.2706;4.6114;3.6849;-0.3642;2.0002;-0.3924;0.0;-10.8;30.66;-27.9;33.76;15.23;107.7;0.0;58.584;39.468754;-0.341327;-51.9;NaN;2.91;4.1;279.48;13 / 33;11015;2021-10-20 19:26:54:447
4.425;-12.705;-3.901;-9.3996;-2.6528;0.9002;-3.2706;4.6114;3.6849;-0.8829;2.2242;-0.5334;0.0;-10.8;30.66;-27.9;33.76;15.23;107.7;0.0;58.584;39.468754;-0.341327;-51.9;NaN;2.91;4.1;279.48;13 / 33;11065;2021-10-20 19:26:54:497
-2.247;-11.5609;0.8471;-9.1746;2.9736;1.7909;3.5924;1.9241;-2.1347;-0.0843;1.022;0.1961;0.0;-11.46;32.7;-25.01;37.27;15.69;84.53;0.0;58.584;39.468754;-0.341327;-51.9;NaN;2.91;4.1;279.48;13 / 33;11114;2021-10-20 19:26:54:546
-2.039;-14.6509;1.814;-9.1746;2.9736;1.7909;3.5924;1.9241;-2.1347;-0.0843;1.022;0.1961;0.0;-11.46;32.7;-25.01;37.27;15.69;84.53;0.0;58.584;39.468754;-0.341327;-51.9;NaN;2.91;4.1;279.48;13 / 33;11164;2021-10-20 19:26:54:596
0.761;-11.7589;-3.3529;-8.9064;-1.9441;-3.6152;-1.1261;0.9157;1.163;0.5484;-0.6132;0.7292;0.0;-15.49;35.81;-17.1;32.39;-17.65;78.95;0.0;58.584;39.468754;-0.341327;-51.9;NaN;2.91;4.1;279.48;13 / 33;11215;2021-10-20 19:26:54:647
-1.029;-5.115;1.704;-9.6199;0.8715;1.6855;0.9622;-2.7041;-1.9834;0.5484;-0.6132;0.7292;0.0;-18.3;37.8;-8.1;16.8;-5.1;80.06;0.0;62.694;39.468754;-0.341327;-51.9;NaN;2.91;4.1;279.48;13 / 33;11264;2021-10-20 19:26:54:696
-1.608;-4.878;0.423;-9.5481;2.1356;0.6608;1.3838;-4.4799;-1.0864;0.2494;-1.665;0.3659;0.0;-18.3;37.8;-8.1;16.8;-5.1;80.06;0.0;62.694;39.468754;-0.341327;-51.9;NaN;2.91;4.1;279.48;13 / 33;11314;2021-10-20 19:26:54:746
-1.608;-4.878;0.423;-8.0206;4.6639;3.1795;1.3838;-4.4799;-1.0864;0.3284;-3.4222;0.637;0.0;-21.06;37.69;-1.61;6.04;-12.58;86.04;0.0;62.694;39.468754;-0.341327;-51.9;NaN;2.91;4.1;279.48;13 / 33;11365;2021-10-20 19:26:54:797
-1.8761;-3.645;0.746;-8.7819;2.1356;-3.802;1.214;-6.1404;-1.1303;0.3284;-3.4222;0.637;0.0;-23.46;36.19;1.86;6.04;-12.58;86.04;0.0;62.694;39.468754;-0.341327;-51.9;NaN;2.91;4.1;279.48;13 / 33;11414;2021-10-20 19:26:54:846
-1.376;-10.52;-6.261;-8.7819;2.1356;-3.802;0.0147;0.8108;5.8651;-0.216;-3.1388;1.1725;0.0;-23.46;36.19;1.86;6.04;-12.58;86.04;0.0;62.694;39.468754;-0.341327;-51.9;NaN;2.91;4.1;279.48;13 / 33;11465;2021-10-20 19:26:54:897
1.673;-17.44;-14.079;-6.608;-0.6991;-7.2113;0.0147;0.8108;5.8651;-2.2861;0.9508;-0.1335;0.0;-23.46;34.91;0.3;334.79;4.09;137.5;0.0;62.694;39.468754;-0.341327;-51.9;NaN;2.91;4.1;279.48;13 / 33;11514;2021-10-20 19:26:54:946
-6.3761;-6.1661;-4.203;-6.6511;1.47;-7.0533;-2.7289;4.9177;4.0254;-2.2861;0.9508;-0.1335;0.0;-23.46;34.91;0.3;334.79;4.09;137.5;0.0;62.694;39.468754;-0.341327;-51.9;NaN;2.91;4.1;279.48;13 / 33;11564;2021-10-20 19:26:54:996
0.95;-14.158;-2.0509;-8.849;1.312;4.0223;1.5845;9.2946;-11.2248;-1.3991;0.1836;-0.0606;0.0;-23.1;35.46;-2.4;334.37;-8.62;136.68;0.0;57.884;39.468754;-0.341327;-51.9;NaN;2.91;4.1;279.48;13 / 33;11614;2021-10-20 19:26:55:046
0.95;-14.158;-2.0509;-7.2975;-5.9185;2.8108;1.5845;9.2946;-11.2248;-1.3991;0.1836;-0.0606;0.0;-21.6;35.34;-3.19;15.11;37.12;68.93;0.0;57.884;39.468754;-0.341327;-51.9;NaN;2.91;4.1;279.48;13 / 33;11665;2021-10-20 19:26:55:097
2.975;-3.7;5.9051;-9.3565;2.8587;-0.6847;-4.6031;-5.0557;-4.3254;0.6278;-1.3111;-0.4443;0.0;-21.6;35.34;-3.19;15.11;37.12;68.93;0.0;57.884;39.46873;-0.341335;-52.1;NaN;4.92;3.9;294.11;14 / 33;11715;2021-10-20 19:26:55:147
1.697;-12.662;-0.3941;-9.3565;2.8587;-0.6847;-2.9989;2.9982;-0.7294;1.5012;-2.1526;-0.661;0.0;-20.94;34.8;-7.99;13.33;-16.95;94.19;0.0;57.884;39.46873;-0.341335;-52.1;NaN;4.92;3.9;294.11;14 / 33;11764;2021-10-20 19:26:55:196
-2.0411;-9.986;-3.966;-9.4427;-0.7135;-2.5522;-2.9989;2.9982;-0.7294;1.5012;-2.1526;-0.661;0.0;-19.44;33.24;-13.99;13.93;4.17;105.12;0.0;57.884;39.46873;-0.341335;-52.1;NaN;4.92;3.9;294.11;14 / 33;11815;2021-10-20 19:26:55:247
2.822;-10.0121;1.22;-9.1746;-2.988;1.7526;-0.6562;-1.4682;-0.0034;0.499;0.3798;-0.4663;0.0;-19.44;33.24;-13.99;13.93;4.17;105.12;0.0;57.884;39.46873;-0.341335;-52.1;NaN;4.92;3.9;294.11;14 / 33;11865;2021-10-20 19:26:55:297
0.1001;-9.395;-0.093;-9.7923;-0.3687;0.4214;-1.4351;0.3425;-0.7446;-0.0851;2.2897;-0.6777;0.0;-16.8;31.31;-19.39;31.97;2.15;87.54;0.0;61.487;39.46873;-0.341335;-52.1;NaN;4.92;3.9;294.11;14 / 33;11914;2021-10-20 19:26:55:346
1.2041;-10.093;-1.503;-9.7444;-0.4884;-0.972;-0.3367;0.2995;0.5212;-0.0851;2.2897;-0.6777;0.0;-16.8;31.31;-19.39;31.97;2.15;87.54;0.0;61.487;39.46873;-0.341335;-52.1;NaN;4.92;3.9;294.11;14 / 33;11965;2021-10-20 19:26:55:397
1.2041;-10.093;-1.503;-9.1698;-3.4476;-0.4693;-0.3367;0.2995;0.5212;0.1312;2.0564;-0.3437;0.0;-13.31;29.16;-22.86;36.0;2.86;95.7;0.0;61.487;39.46873;-0.341335;-52.1;NaN;4.92;3.9;294.11;14 / 33;12014;2021-10-20 19:26:55:446
3.2;-11.937;-1.218;-9.6678;-0.5507;-1.5419;-3.4761;0.578;0.0748;-0.507;2.6034;-0.3014;0.0;-10.14;28.5;-25.56;39.28;20.58;92.93;0.0;61.487;39.46873;-0.341335;-52.1;NaN;4.92;3.9;294.11;14 / 33;12064;2021-10-20 19:26:55:496
2.127;-11.9681;-2.6231;-9.6678;-0.5507;-1.5419;-1.3636;2.2096;1.8755;-0.507;2.6034;-0.3014;0.0;-10.14;28.5;-25.56;39.28;20.58;92.93;0.0;61.487;39.46873;-0.341335;-52.1;NaN;4.92;3.9;294.11;14 / 33;12115;2021-10-20 19:26:55:547
5.091;-13.61;-4.002;-9.0261;-3.0837;-2.2936;-3.9957;3.923;2.8869;-0.8753;2.6201;-0.3366;0.0;-7.44;28.31;-26.34;37.38;18.32;104.26;0.0;61.487;39.46873;-0.341335;-52.1;NaN;4.92;3.9;294.11;14 / 33;12164;2021-10-20 19:26:55:596
-6.6251;-13.2649;-0.371;-9.73;-0.9242;0.8236;-3.9957;3.923;2.8869;-0.8753;2.6201;-0.3366;0.0;-7.31;30.3;-23.1;37.77;5.41;85.16;0.0;55.289;39.46873;-0.341335;-52.1;NaN;4.92;3.9;294.11;14 / 33;12214;2021-10-20 19:26:55:646
3.597;-12.1091;-2.218;-9.5912;0.091;2.0542;6.8131;6.5475;-3.9944;-0.3961;1.7089;0.1414;0.0;-7.31;30.3;-23.1;37.77;5.41;85.16;0.0;55.289;39.46873;-0.341335;-52.1;NaN;4.92;3.9;294.11;14 / 33;12264;2021-10-20 19:26:55:696
3.597;-12.1091;-2.218;-9.4906;1.0582;-2.2218;-1.4586;1.4182;4.0638;0.2853;0.6731;0.3699;0.0;-10.5;34.39;-15.41;26.29;-0.53;77.91;0.0;55.289;39.46873;-0.341335;-52.1;NaN;4.92;3.9;294.11;14 / 33;12315;2021-10-20 19:26:55:747
-1.326;-10.326;0.464;-9.4475;0.972;2.4421;-1.4586;1.4182;4.0638;0.2853;0.6731;0.3699;0.0;-10.5;34.39;-15.41;26.29;-0.53;77.91;0.0;55.289;39.46873;-0.341335;-52.1;NaN;4.92;3.9;294.11;14 / 33;12365;2021-10-20 19:26:55:797
-0.16;-4.938;0.4691;-9.4475;0.972;2.4421;1.0702;-4.5951;-2.1574;0.4473;-1.2484;0.4463;0.0;-14.04;36.41;-6.41;15.05;-5.69;75.51;0.0;55.289;39.46873;-0.341335;-52.1;NaN;4.92;3.9;294.11;14 / 33;12415;2021-10-20 19:26:55:847
-2.204;-4.4711;0.744;-9.3709;2.8108;0.6512;1.8615;-4.8641;-1.1254;0.3908;-3.9468;0.7868;0.0;-16.01;36.0;0.84;0.21;-16.66;86.02;0.0;55.289;39.46873;-0.341335;-52.1;NaN;4.92;3.9;294.11;14 / 33;12464;2021-10-20 19:26:55:896
-0.5261;-3.868;0.0881;-9.3996;1.4988;2.375;1.8615;-4.8641;-1.1254;0.3908;-3.9468;0.7868;0.0;-16.01;36.0;0.84;0.21;-16.66;86.02;0.0;55.289;39.46873;-0.341335;-52.1;NaN;4.92;3.9;294.11;14 / 33;12514;2021-10-20 19:26:55:946
-1.019;-14.4949;-11.721;-8.1259;0.7757;-5.4348;-0.0393;-5.9283;-0.4775;-0.0839;-3.74;0.6758;0.0;-17.89;35.29;2.76;2.7;-8.79;75.82;0.0;62.257;39.46873;-0.341335;-52.1;NaN;4.92;3.9;294.11;14 / 33;12565;2021-10-20 19:26:55:997
-1.019;-14.4949;-11.721;-7.8721;0.3256;-5.8371;0.1312;4.7564;10.9263;-0.0839;-3.74;0.6758;0.0;-18.6;34.99;0.0;341.83;-1.9;126.56;0.0;62.257;39.46873;-0.341335;-52.1;NaN;4.92;3.9;294.11;14 / 33;12615;2021-10-20 19:26:56:047
2.415;-12.999;-5.328;-6.2872;6.3063;-4.1132;-1.775;-4.8326;1.7826;-2.1722;0.7491;0.223;0.0;-18.6;34.99;0.0;341.83;-1.9;126.56;0.0;62.257;39.46873;-0.341335;-52.1;NaN;4.92;3.9;294.11;14 / 33;12664;2021-10-20 19:26:56:096
-6.4361;-13.437;3.264;-6.2872;6.3063;-4.1132;-1.775;-4.8326;1.7826;-1.272;0.0771;0.1495;0.0;-18.3;35.16;-1.61;333.52;-40.01;123.19;0.0;62.257;39.468708;-0.341327;-52.2;NaN;4.47;3.2;311.38;14 / 33;12714;2021-10-20 19:26:56:146
0.947;-6.381;-1.905;-9.73;-1.1492;-0.4453;2.5045;13.005;-10.7027;-1.272;0.0771;0.1495;0.0;-18.3;35.16;-1.61;333.52;-40.01;123.19;0.0;62.257;39.468708;-0.341327;-52.2;NaN;4.47;3.2;311.38;14 / 33;12764;2021-10-20 19:26:56:196
-2.589;-9.5261;3.276;-4.9943;-3.8451;7.513;-3.734;-6.0418;-7.4466;1.187;-2.2819;-0.4936;0.0;-17.4;35.46;-4.31;5.0;6.73;92.62;0.0;62.257;39.468708;-0.341327;-52.2;NaN;4.47;3.2;311.38;14 / 33;12815;2021-10-20 19:26:56:247
3.767;-9.636;1.625;-9.6869;-1.2019;-0.9385;-2.6872;2.3126;-0.0315;1.3802;-1.8507;-0.6538;0.0;-16.69;34.26;-9.54;13.03;7.04;95.53;0.0;60.89;39.468708;-0.341327;-52.2;NaN;4.47;3.2;311.38;14 / 33;12865;2021-10-20 19:26:56:297
3.767;-9.636;1.625;-8.9878;2.1213;-3.2944;-2.6872;2.3126;-0.0315;1.3802;-1.8507;-0.6538;0.0;-16.69;34.26;-9.54;13.03;7.04;95.53;0.0;60.89;39.468708;-0.341327;-52.2;NaN;4.47;3.2;311.38;14 / 33;12915;2021-10-20 19:26:56:347
0.1481;-9.2291;-0.849;-9.6055;-1.7957;0.814;1.5707;-0.173;2.8798;0.4331;0.9373;-0.3451;0.0;-16.5;32.51;-14.46;15.3;-12.49;110.13;0.0;60.89;39.468708;-0.341327;-52.2;NaN;4.47;3.2;311.38;14 / 33;12964;2021-10-20 19:26:56:396
0.519;-9.931;-0.366;-9.6055;-1.7957;0.814;-0.8048;0.1436;-0.2194;0.4331;0.9373;-0.3451;0.0;-14.94;31.2;-18.41;30.24;10.55;85.16;0.0;60.89;39.468708;-0.341327;-52.2;NaN;4.47;3.2;311.38;14 / 33;13014;2021-10-20 19:26:56:446
0.746;-9.77;0.086;-9.7683;-0.8045;0.3112;-0.718;-0.0255;-0.6304;0.0899;2.1094;-0.5131;0.0;-14.94;31.2;-18.41;30.24;10.55;85.16;0.0;60.89;39.468708;-0.341327;-52.2;NaN;4.47;3.2;311.38;14 / 33;13065;2021-10-20 19:26:56:497
0.7751;-11.123;-1.632;-9.6726;-0.0144;-1.6137;-0.718;-0.0255;-0.6304;0.0686;1.8898;-0.2573;0.0;-12.71;29.76;-21.36;31.74;0.08;99.47;0.0;60.89;39.468708;-0.341327;-52.2;NaN;4.47;3.2;311.38;14 / 33;13115;2021-10-20 19:26:56:547
4.0661;-12.231;-1.1771;-9.3661;-2.6863;-1.1205;-1.2313;1.8973;1.2325;0.0686;1.8898;-0.2573;0.0;-12.71;29.76;-21.36;31.74;0.08;99.47;0.0;62.029;39.468708;-0.341327;-52.2;NaN;4.47;3.2;311.38;14 / 33;13164;2021-10-20 19:26:56:596
4.0661;-12.231;-1.1771;-9.0166;-3.6152;-1.3503;-3.0478;2.5026;0.886;-0.3609;2.2606;-0.3044;0.0;-10.44;28.61;-24.24;35.8;15.9;96.82;0.0;62.029;39.468708;-0.341327;-52.2;NaN;4.47;3.2;311.38;14 / 33;13214;2021-10-20 19:26:56:646
6.639;-16.164;-3.1399;-9.7109;-0.6656;-1.1923;-2.9185;3.3393;2.3347;-0.7679;2.6289;-0.6464;0.0;-8.81;29.4;-24.84;36.51;21.63;98.52;0.0;62.029;39.468708;-0.341327;-52.2;NaN;4.47;3.2;311.38;14 / 33;13264;2021-10-20 19:26:56:696
-2.463;-11.3261;-0.524;-8.9399;3.8259;1.2737;-2.9185;3.3393;2.3347;-0.7679;2.6289;-0.6464;0.0;-8.81;29.4;-24.84;36.51;21.63;98.52;0.0;62.029;39.468708;-0.341327;-52.2;NaN;4.47;3.2;311.38;14 / 33;13315;2021-10-20 19:26:56:747
-2.843;-14.4041;3.602;-8.9399;3.8259;1.2737;7.1437;4.1876;-3.1093;0.0259;0.8797;0.4095;0.0;-10.5;31.86;-20.7;39.68;-22.96;81.89;0.0;62.029;39.468708;-0.341327;-52.2;NaN;4.47;3.2;311.38;14 / 33;13365;2021-10-20 19:26:56:797
-0.524;-12.147;-4.684;-9.1458;-1.6185;-3.1508;-1.1167;1.0535;2.8246;0.2793;-0.7531;0.9932;0.0;-13.8;34.01;-12.36;10.57;9.5;109.01;0.0;62.029;39.468708;-0.341327;-52.2;NaN;4.47;3.2;311.38;14 / 33;13415;2021-10-20 19:26:56:847
0.033;-6.7061;0.864;-9.7731;-0.5555;0.5555;-1.1167;1.0535;2.8246;0.2793;-0.7531;0.9932;0.0;-13.8;34.01;-12.36;10.57;9.5;109.01;0.0;64.334;39.468708;-0.341327;-52.2;NaN;4.47;3.2;311.38;14 / 33;13464;2021-10-20 19:26:56:896
-1.077;-4.854;0.038;-9.7157;1.2306;0.5028;0.0994;-3.0764;-1.6017;0.1768;-1.2983;0.0188;0.0;-16.5;35.16;-3.66;7.79;3.25;86.75;0.0;64.334;39.468708;-0.341327;-52.2;NaN;4.47;3.2;311.38;14 / 33;13515;2021-10-20 19:26:56:947
-1.077;-4.854;0.038;-8.4946;3.711;3.1987;1.5097;-5.1713;-1.4951;0.1768;-1.2983;0.0188;0.0;-16.5;35.16;-3.66;7.79;3.25;86.75;0.0;64.334;39.468708;-0.341327;-52.2;NaN;4.47;3.2;311.38;14 / 33;13565;2021-10-20 19:26:56:997
-1.943;-3.159;1.716;-9.3039;2.1356;-2.2458;1.5097;-5.1713;-1.4951;0.3865;-4.0058;0.4723;0.0;-19.09;34.8;2.7;8.75;-22.24;69.37;0.0;64.334;39.468708;-0.341327;-52.2;NaN;4.47;3.2;311.38;14 / 33;13615;2021-10-20 19:26:57:047
-1.251;-8.442;-4.8251;-9.3039;2.1356;-2.2458;0.1574;-5.072;0.784;-0.4686;-2.9964;0.8097;0.0;-20.34;33.66;3.79;343.6;-12.58;103.57;0.0;64.334;39.468708;-0.341327;-52.2;NaN;4.47;3.2;311.38;14 / 33;13664;2021-10-20 19:26:57:096
1.1051;-19.05;-17.794;-6.675;-0.4118;-7.173;-2.2683;7.7909;17.7842;-0.4686;-2.9964;0.8097;0.0;-20.34;33.66;3.79;343.6;-12.58;103.57;0.0;64.334;39.468697;-0.341327;-52.5;NaN;5.01;3.0;278.14;14 / 33;13714;2021-10-20 19:26:57:146
-6.218;-12.6979;-5.33;-8.193;1.7526;-5.0949;-2.2683;7.7909;17.7842;-2.1395;1.0363;-0.0835;0.0;-20.51;33.41;0.36;335.4;2.41;137.06;0.0;64.334;39.468697;-0.341327;-52.5;NaN;5.01;3.0;278.14;14 / 33;13765;2021-10-20 19:26:57:197
-1.938;-5.601;-1.067;-7.8626;0.4214;5.8514;5.1546;3.3141;2.6668;-0.4862;-0.5178;-0.2575;0.0;-20.29;34.01;-2.4;22.12;-2.46;53.34;0.0;61.634;39.468697;-0.341327;-52.5;NaN;5.01;3.0;278.14;14 / 33;13814;2021-10-20 19:26:57:246
-1.938;-5.601;-1.067;-8.3079;-5.2002;0.3256;0.5047;-5.3937;-4.0279;-0.4862;-0.5178;-0.2575;0.0;-20.29;34.01;-2.4;22.12;-2.46;53.34;0.0;61.634;39.468697;-0.341327;-52.5;NaN;5.01;3.0;278.14;14 / 33;13865;2021-10-20 19:26:57:297
3.197;-8.6689;3.276;-9.6486;-1.2498;-1.2115;-3.0238;3.2898;-3.6519;1.6049;-2.6528;-0.0378;0.0;-19.91;33.49;-6.3;10.0;32.02;87.76;0.0;61.634;39.468697;-0.341327;-52.5;NaN;5.01;3.0;278.14;14 / 33;13915;2021-10-20 19:26:57:347
1.6031;-10.488;-0.809;-9.6486;-1.2498;-1.2115;-3.0238;3.2898;-3.6519;1.6049;-2.6528;-0.0378;0.0;-19.91;33.49;-6.3;10.0;32.02;87.76;0.0;61.634;39.468697;-0.341327;-52.5;NaN;5.01;3.0;278.14;14 / 33;13965;2021-10-20 19:26:57:397
-0.28;-9.244;-1.326;-9.3853;1.5419;-2.3894;0.8323;-0.1181;1.6809;0.7117;0.436;-1.189;0.0;-18.54;32.29;-12.66;17.05;7.32;97.16;0.0;61.634;39.468697;-0.341327;-52.5;NaN;5.01;3.0;278.14;14 / 33;14014;2021-10-20 19:26:57:446
0.0;-10.077;0.392;-9.6151;-1.4413;1.2929;-1.6957;-0.1653;-1.9525;0.2016;1.7621;-0.5372;0.0;-16.74;30.79;-18.06;31.52;8.45;82.34;0.0;61.634;39.468697;-0.341327;-52.5;NaN;5.01;3.0;278.14;14 / 33;14064;2021-10-20 19:26:57:496
0.9281;-9.4931;0.579;-9.7923;-0.2969;0.4693;-1.6957;-0.1653;-1.9525;0.2016;1.7621;-0.5372;0.0;-16.74;30.79;-18.06;31.52;8.45;82.34;0.0;60.494;39.468697;-0.341327;-52.5;NaN;5.01;3.0;278.14;14 / 33;14115;2021-10-20 19:26:57:547
0.9281;-9.4931;0.579;-9.7923;-0.3448;-0.3735;-0.9421;-0.3133;-1.087;0.2331;1.737;-0.0826;0.0;-14.59;28.8;-21.54;37.66;1.73;87.26;0.0;60.494;39.468697;-0.341327;-52.5;NaN;5.01;3.0;278.14;14 / 33;14165;2021-10-20 19:26:57:597
0.95;-10.2469;-1.223;-9.572;-2.083;-0.4693;-1.755;0.7552;0.8561;0.1562;1.9221;-0.1749;0.0;-11.59;27.66;-24.41;37.66;1.73;87.26;0.0;60.494;39.468697;-0.341327;-52.5;NaN;5.01;3.0;278.14;14 / 33;14214;2021-10-20 19:26:57:646
2.7;-11.862;-0.978;-9.572;-2.083;-0.4693;-1.755;0.7552;0.8561;0.1562;1.9221;-0.1749;0.0;-11.59;27.66;-24.41;37.66;1.73;87.26;0.0;60.494;39.468697;-0.341327;-52.5;NaN;5.01;3.0;278.14;14 / 33;14264;2021-10-20 19:26:57:696
4.7051;-12.468;-2.3171;-9.3613;-2.7677;-0.9242;-2.3544;2.0539;0.6578;-0.3539;2.4982;-0.4863;0.0;-9.11;27.06;-26.81;41.69;16.4;95.64;0.0;60.494;39.468697;-0.341327;-52.5;NaN;5.01;3.0;278.14;14 / 33;14315;2021-10-20 19:26:57:747
3.975;-12.6401;-2.467;-9.0453;-3.0023;-2.308;-3.9695;4.8995;3.0538;-0.3539;2.4982;-0.4863;0.0;-9.11;27.06;-26.81;41.69;16.4;95.64;0.0;60.494;39.468697;-0.341327;-52.5;NaN;5.01;3.0;278.14;14 / 33;14365;2021-10-20 19:26:57:797
-6.371;-13.198;0.696;-9.5529;2.2122;0.1867;4.0577;2.2186;-1.1895;-0.8987;2.6092;-0.6622;0.0;-8.34;27.71;-26.7;37.89;17.83;104.31;0.0;56.432;39.468697;-0.341327;-52.5;NaN;5.01;3.0;278.14;14 / 33;14415;2021-10-20 19:26:57:847
-6.371;-13.198;0.696;-9.4667;1.4269;2.1261;4.0577;2.2186;-1.1895;0.0333;0.9116;0.5017;0.0;-10.99;30.9;-21.41;37.56;-8.37;77.34;0.0;56.432;39.468697;-0.341327;-52.5;NaN;5.01;3.0;278.14;14 / 33;14465;2021-10-20 19:26:57:897
1.811;-11.101;0.792;-9.4571;-0.2155;-2.5809;3.2523;4.5548;-4.0719;0.0333;0.9116;0.5017;0.0;-10.99;30.9;-21.41;37.56;-8.37;77.34;0.0;56.432;39.468697;-0.341327;-52.5;NaN;5.01;3.0;278.14;14 / 33;14514;2021-10-20 19:26:57:946
-0.7301;-11.585;-0.986;-9.4571;-0.2155;-2.5809;1.1071;1.7937;0.4298;0.4022;-0.5617;0.9571;0.0;-14.64;34.01;-12.96;14.03;1.26;105.26;0.0;56.432;39.468697;-0.341327;-52.5;NaN;5.01;3.0;278.14;14 / 33;14565;2021-10-20 19:26:57:997
-1.242;-4.94;1.517;-9.3948;1.3838;2.4469;1.3205;-4.8678;-1.9068;0.2662;-1.3001;0.1349;0.0;-17.04;35.21;-4.26;14.03;1.26;105.26;0.0;56.432;39.468697;-0.341327;-52.5;NaN;5.01;3.0;278.14;14 / 33;14615;2021-10-20 19:26:58:047
-1.7419;-4.725;0.842;-9.2895;3.0694;0.6752;1.5742;-5.0859;-1.1986;0.2662;-1.3001;0.1349;0.0;-17.04;35.21;-4.26;14.03;1.26;105.26;0.0;56.432;39.468697;-0.341327;-52.5;NaN;5.01;3.0;278.14;14 / 33;14665;2021-10-20 19:26:58:097
-1.867;-3.111;-0.083;-8.3653;4.6974;2.0255;1.5742;-5.0859;-1.1986;0.2966;-4.0118;1.0033;0.0;-18.84;35.1;2.59;4.13;-28.62;76.39;0.0;56.432;39.468697;-0.341343;-52.2;NaN;4.63;2.7;290.29;15 / 33;14714;2021-10-20 19:26:58:146
0.4661;-14.273;-12.8171;-8.1355;0.905;-5.4013;0.4114;-4.673;2.1676;-1.0432;-2.3012;0.7771;0.0;-18.84;35.1;2.59;4.13;-28.62;76.39;0.0;56.432;39.468697;-0.341343;-52.2;NaN;4.63;2.7;290.29;15 / 33;14764;2021-10-20 19:26:58:196
0.4661;-14.273;-12.8171;-7.6662;-0.7757;-6.0621;-2.6276;8.4709;18.6422;-1.0432;-2.3012;0.7771;0.0;-20.29;34.69;2.94;4.13;-28.62;76.39;0.0;61.143;39.468697;-0.341343;-52.2;NaN;4.63;2.7;290.29;15 / 33;14814;2021-10-20 19:26:58:246
2.702;-12.1999;-5.5699;-8.3079;3.735;-3.6344;-1.0305;-3.5371;3.764;-2.2469;1.1386;-0.2908;0.0;-20.89;34.86;-0.9;341.34;4.54;128.34;0.0;61.143;39.468697;-0.341343;-52.2;NaN;4.63;2.7;290.29;15 / 33;14865;2021-10-20 19:26:58:297
-4.236;-15.8209;9.083;-8.3079;3.735;-3.6344;-1.0305;-3.5371;3.764;-2.2469;1.1386;-0.2908;0.0;-20.89;34.86;-0.9;341.34;4.54;128.34;0.0;61.143;39.468697;-0.341343;-52.2;NaN;4.63;2.7;290.29;15 / 33;14914;2021-10-20 19:26:58:346
-2.2061;-5.8849;-0.591;-8.9687;1.3216;-3.735;0.656;1.1749;1.2345;-0.3508;-0.5081;-0.6252;0.0;-19.99;34.99;-3.84;352.88;-7.75;112.61;0.0;61.143;39.468697;-0.341343;-52.2;NaN;4.63;2.7;290.29;15 / 33;14965;2021-10-20 19:26:58:397
-0.6911;-10.455;2.06;-9.074;0.6847;3.6583;-0.6436;-3.1271;-4.9283;1.4498;-2.6165;0.0579;0.0;-18.71;34.39;-7.74;23.82;-4.0;68.04;0.0;61.143;39.468697;-0.341343;-52.2;NaN;4.63;2.7;290.29;15 / 33;15015;2021-10-20 19:26:58:447
3.2291;-9.9;0.8921;-9.0788;-3.6727;0.4932;-0.6436;-3.1271;-4.9283;1.4498;-2.6165;0.0579;0.0;-18.71;34.39;-7.74;23.82;-4.0;68.04;0.0;61.143;39.468697;-0.341343;-52.2;NaN;4.63;2.7;290.29;15 / 33;15065;2021-10-20 19:26:58:497
3.2291;-9.9;0.8921;-9.3661;1.3791;-2.5522;-4.2312;0.203;-2.0502;0.7344;0.2397;-1.0004;0.0;-17.89;33.66;-13.14;20.17;22.0;86.89;0.0;60.047;39.468697;-0.341343;-52.2;NaN;4.63;2.7;290.29;15 / 33;15114;2021-10-20 19:26:58:546
0.8831;-9.1841;0.485;-9.7971;0.1101;0.3783;-1.3357;-0.582;-1.2863;0.3961;1.5433;-0.7568;0.0;-17.89;33.66;-13.14;20.17;22.0;86.89;0.0;60.047;39.468697;-0.341343;-52.2;NaN;4.63;2.7;290.29;15 / 33;15165;2021-10-20 19:26:58:597
-1.1561;-9.751;-0.1571;-9.7971;0.1101;0.3783;-1.3357;-0.582;-1.2863;0.3961;1.5433;-0.7568;0.0;-16.74;32.16;-17.81;30.37;-0.64;87.79;0.0;60.047;39.468697;-0.341343;-52.2;NaN;4.63;2.7;290.29;15 / 33;15215;2021-10-20 19:26:58:647
0.89;-9.943;0.296;-9.7588;-0.9098;0.3591;0.1942;-0.0084;-0.4441;0.1632;1.4116;0.0826;0.0;-15.19;30.11;-21.6;35.85;5.32;87.89;0.0;60.047;39.468697;-0.341343;-52.2;NaN;4.63;2.7;290.29;15 / 33;15264;2021-10-20 19:26:58:696
0.8561;-10.4359;-1.2319;-9.7252;-0.1628;-1.2402;-0.0732;0.8941;0.9609;0.1632;1.4116;0.0826;0.0;-15.19;30.11;-21.6;35.85;5.32;87.89;0.0;60.047;39.468697;-0.341343;-52.2;NaN;4.63;2.7;290.29;15 / 33;15314;2021-10-20 19:26:58:746
3.104;-11.4911;-0.897;-9.4236;-2.7054;-0.2394;-0.0732;0.8941;0.9609;0.0759;1.6242;-0.0154;0.0;-12.24;28.69;-24.6;38.52;0.95;97.27;0.0;60.047;39.468697;-0.341343;-52.2;NaN;4.63;2.7;290.29;15 / 33;15364;2021-10-20 19:26:58:796
3.104;-11.4911;-0.897;-9.3039;-2.7868;-1.3599;-2.7676;1.6898;0.4626;-0.287;2.2919;-0.4587;0.0;-8.81;28.26;-26.21;38.74;16.51;98.32;0.0;55.522;39.468697;-0.341343;-52.2;NaN;4.63;2.7;290.29;15 / 33;15415;2021-10-20 19:26:58:847
4.05;-13.593;-3.537;-8.916;-3.1172;-2.6384;-3.3528;3.8164;2.9169;-0.287;2.2919;-0.4587;0.0;-8.81;28.26;-26.21;38.74;16.51;98.32;0.0;55.522;39.468697;-0.341343;-52.2;NaN;4.63;2.7;290.29;15 / 33;15465;2021-10-20 19:26:58:897
3.212;-11.829;-1.089;-8.916;-3.1172;-2.6384;-3.3528;3.8164;2.9169;-0.8419;2.5519;-0.6362;0.0;-8.81;29.29;-25.44;33.39;18.53;106.48;0.0;55.522;39.468697;-0.341343;-52.2;NaN;4.63;2.7;290.29;15 / 33;15514;2021-10-20 19:26:58:946
-7.6661;-15.625;1.232;-8.8202;4.2808;-0.182;2.0893;1.7335;-1.6039;-0.1266;0.8217;0.5045;0.0;-8.81;29.29;-25.44;33.39;18.53;106.48;0.0;55.522;39.468697;-0.341343;-52.2;NaN;4.63;2.7;290.29;15 / 33;15564;2021-10-20 19:26:58:996
2.3501;-10.895;-2.29;-9.6295;-0.316;1.8292;0.5046;3.1803;-3.3834;-0.1266;0.8217;0.5045;0.0;-11.59;32.76;-19.5;33.39;18.53;106.48;0.0;55.522;39.468697;-0.341343;-52.2;NaN;4.63;2.7;290.29;15 / 33;15615;2021-10-20 19:26:59:047
-0.9139;-9.684;-0.119;-9.5864;0.34;-2.0351;0.7999;2.4864;1.8621;0.3938;-0.8152;0.8918;0.0;-14.7;35.21;-11.04;12.53;-1.99;101.99;0.0;55.522;39.468697;-0.341343;-52.2;NaN;4.63;2.7;290.29;15 / 33;15665;2021-10-20 19:26:59:097
-0.9139;-9.684;-0.119;-9.1028;2.4134;2.7294;0.7999;2.4864;1.8621;0.3938;-0.8152;0.8918;0.0;-14.7;35.21;-11.04;12.53;-1.99;101.99;0.0;55.522;39.468697;-0.341353;-52.1;NaN;4.69;2.6;296.93;15 / 33;15715;2021-10-20 19:26:59:147
-1.3091;-4.535;0.797;-9.3087;3.055;0.4405;1.2944;-5.2662;-1.3916;0.2525;-1.6471;0.1848;0.0;-16.99;35.29;-2.7;14.44;-14.25;73.31;0.0;62.675;39.468697;-0.341353;-52.1;NaN;4.69;2.6;296.93;15 / 33;15765;2021-10-20 19:26:59:197
-1.79;-4.0849;0.773;-9.3087;3.055;0.4405;1.4545;-5.7101;-1.3643;0.1228;-3.7075;0.7444;0.0;-18.71;34.8;2.94;355.6;-18.15;87.29;0.0;62.675;39.468697;-0.341353;-52.1;NaN;4.69;2.6;296.93;15 / 33;15814;2021-10-20 19:26:59:246
-0.7421;-4.3459;-1.311;-9.2991;3.1125;0.1197;1.4545;-5.7101;-1.3643;0.1228;-3.7075;0.7444;0.0;-18.71;34.8;2.94;355.6;-18.15;87.29;0.0;62.675;39.468697;-0.341353;-52.1;NaN;4.69;2.6;296.93;15 / 33;15864;2021-10-20 19:26:59:296
1.026;-14.7131;-15.063;-7.8721;0.5794;-5.8227;-0.3965;-2.5763;3.6661;-0.7102;-2.5623;0.6453;0.0;-19.91;34.2;1.99;337.79;-3.39;126.49;0.0;62.675;39.468697;-0.341353;-52.1;NaN;4.69;2.6;296.93;15 / 33;15915;2021-10-20 19:26:59:347
-0.895;-11.1161;-6.438;-8.5377;-0.5219;-4.798;-3.2261;8.5606;16.7737;-2.1796;1.2189;-0.1602;0.0;-19.91;34.2;1.99;337.79;-3.39;126.49;0.0;62.675;39.468697;-0.341353;-52.1;NaN;4.69;2.6;296.93;15 / 33;15964;2021-10-20 19:26:59:396
-3.851;-16.123;9.059;-8.2121;5.3295;0.5842;5.7714;1.3131;-3.8439;-2.1796;1.2189;-0.1602;0.0;-19.44;34.5;-1.5;346.76;3.05;119.33;0.0;62.675;39.468697;-0.341353;-52.1;NaN;4.69;2.6;296.93;15 / 33;16015;2021-10-20 19:26:59:447
-3.851;-16.123;9.059;-9.4954;0.6177;-2.3846;5.7714;1.3131;-3.8439;-0.7749;-0.1671;-0.0737;0.0;-18.54;34.91;-4.01;15.51;-32.92;85.93;0.0;58.042;39.468697;-0.341353;-52.1;NaN;4.69;2.6;296.93;15 / 33;16065;2021-10-20 19:26:59:497
2.513;-4.866;1.122;-8.8298;-0.5459;4.2329;-0.6134;-1.8798;-1.3945;1.3603;-2.0676;-0.2923;0.0;-18.54;34.91;-4.01;15.51;-32.92;85.93;0.0;58.042;39.468697;-0.341353;-52.1;NaN;4.69;2.6;296.93;15 / 33;16114;2021-10-20 19:26:59:546
-2.434;-12.123;0.2081;-8.8298;-0.5459;4.2329;1.0611;2.5936;-2.0802;1.3603;-2.0676;-0.2923;0.0;-17.59;34.39;-7.91;23.4;3.19;64.39;0.0;58.042;39.468697;-0.341353;-52.1;NaN;4.69;2.6;296.93;15 / 33;16165;2021-10-20 19:26:59:597
1.622;-10.1029;-0.335;-9.4427;-2.6193;0.3448;1.0611;2.5936;-2.0802;1.2704;-0.5367;-1.2189;0.0;-16.31;32.76;-13.2;20.69;15.49;87.91;0.0;58.042;39.468697;-0.341353;-52.1;NaN;4.69;2.6;296.93;15 / 33;16215;2021-10-20 19:26:59:647
1.859;-9.165;0.744;-9.5577;1.1923;-1.8483;0.8309;0.1412;2.0959;1.2704;-0.5367;-1.2189;0.0;-16.31;32.76;-13.2;20.69;15.49;87.91;0.0;58.042;39.468697;-0.341353;-52.1;NaN;4.69;2.6;296.93;15 / 33;16264;2021-10-20 19:26:59:696
-0.0881;-9.6649;-0.663;-9.7636;-0.4597;-0.7997;-2.7198;0.004;-1.4751;0.4076;1.2689;-0.2919;0.0;-14.81;30.71;-18.3;20.69;15.49;87.91;0.0;58.042;39.468697;-0.341353;-52.1;NaN;4.69;2.6;296.93;15 / 33;16315;2021-10-20 19:26:59:747
-0.0881;-9.6649;-0.663;-9.6534;-1.585;0.6752;-2.7198;0.004;-1.4751;0.0061;2.1387;-0.2984;0.0;-14.81;30.71;-18.3;20.69;15.49;87.91;0.0;57.88;39.468697;-0.341353;-52.1;NaN;4.69;2.6;296.93;15 / 33;16364;2021-10-20 19:26:59:796
0.95;-9.603;0.059;-9.7779;-0.2634;-0.68;-1.4905;-0.4092;-1.3753;0.0061;2.1387;-0.2984;0.0;-12.6;29.16;-22.44;36.87;9.3;86.0;0.0;57.88;39.468697;-0.341353;-52.1;NaN;4.69;2.6;296.93;15 / 33;16414;2021-10-20 19:26:59:846
0.3611;-11.511;-1.5671;-9.7779;-0.2634;-0.68;0.0361;0.8122;0.1593;0.2113;2.0112;-0.3212;0.0;-10.39;28.01;-24.84;40.58;1.54;93.98;0.0;57.88;39.468697;-0.341353;-52.1;NaN;4.69;2.6;296.93;15 / 33;16465;2021-10-20 19:26:59:897
2.664;-12.336;-0.5119;-9.2416;-3.2465;0.4453;-2.0844;2.5504;-0.0189;-0.1101;2.1908;-0.3488;0.0;-10.39;28.01;-24.84;40.58;1.54;93.98;0.0;57.88;39.468697;-0.341353;-52.1;NaN;4.69;2.6;296.93;15 / 33;16514;2021-10-20 19:26:59:946
3.114;-13.1141;-3.561;-9.481;-2.0399;-1.4461;-2.0844;2.5504;-0.0189;-0.1101;2.1908;-0.3488;0.0;-7.69;27.19;-26.4;43.57;19.34;87.24;0.0;57.88;39.468697;-0.341353;-52.1;NaN;4.69;2.6;296.93;15 / 33;16564;2021-10-20 19:26:59:996
3.8891;-11.154;-2.259;-8.8921;-2.6863;-3.146;-2.2959;3.3505;2.9161;-0.6537;2.1733;-0.3524;0.0;-5.64;27.71;-26.7;37.16;15.9;109.48;0.0;57.88;39.468697;-0.341353;-52.1;NaN;4.69;2.6;296.93;15 / 33;16615;2021-10-20 19:27:00:047
3.8891;-11.154;-2.259;-9.5241;2.3032;0.4022;-1.0969;1.2375;-1.9436;-0.6537;2.1733;-0.3524;0.0;-5.64;27.71;-26.7;37.16;15.9;109.48;0.0;57.88;39.468697;-0.341353;-52.1;NaN;4.69;2.6;296.93;15 / 33;16665;2021-10-20 19:27:00:097
-5.933;-13.062;0.2321;-9.6343;-0.3017;1.81;5.7682;6.6984;-3.9739;-0.5415;1.5993;-0.077;0.0;-6.6;30.3;-23.21;39.99;-13.58;87.58;0.0;55.305;39.468708;-0.341372;-52.0;NaN;3.96;2.6;299.96;15 / 33;16714;2021-10-20 19:27:00:146
4.112;-11.774;-1.768;-9.6343;-0.3017;1.81;5.7682;6.6984;-3.9739;0.447;0.3571;0.5039;0.0;-6.6;30.3;-23.21;39.99;-13.58;87.58;0.0;55.305;39.468708;-0.341372;-52.0;NaN;3.96;2.6;299.96;15 / 33;16765;2021-10-20 19:27:00:197
-1.1749;-10.031;-0.744;-9.4858;-0.2921;-2.4804;-2.29;2.3112;3.8298;0.447;0.3571;0.5039;0.0;-9.84;33.96;-15.6;39.99;-13.58;87.58;0.0;55.305;39.468708;-0.341372;-52.0;NaN;3.96;2.6;299.96;15 / 33;16815;2021-10-20 19:27:00:247
-1.34;-5.289;0.8711;-9.098;2.2793;2.8635;1.5443;-3.0639;-1.6784;0.1926;-0.9877;0.5434;0.0;-13.44;35.7;-6.71;17.97;-13.44;72.53;0.0;55.305;39.468708;-0.341372;-52.0;NaN;3.96;2.6;299.96;15 / 33;16865;2021-10-20 19:27:00:297
-1.8401;-5.026;0.512;-9.4906;2.4612;-0.2298;1.7967;-4.2013;-0.6078;-0.0972;-2.3679;0.3396;0.0;-13.44;35.7;-6.71;17.97;-13.44;72.53;0.0;55.305;39.468708;-0.341372;-52.0;NaN;3.96;2.6;299.96;15 / 33;16914;2021-10-20 19:27:00:346
-1.8401;-5.026;0.512;-8.7436;4.4293;0.3208;1.7967;-4.2013;-0.6078;-0.0972;-2.3679;0.3396;0.0;-16.69;34.8;-0.3;17.97;-13.44;72.53;0.0;55.305;39.468708;-0.341372;-52.0;NaN;3.96;2.6;299.96;15 / 33;16964;2021-10-20 19:27:00:396
-1.874;-3.8269;-0.306;-8.4659;1.0439;-4.8411;1.4184;-5.959;-0.3821;0.0303;-4.608;1.2591;0.0;-18.71;33.96;0.79;342.21;-6.11;119.76;0.0;62.926;39.468708;-0.341372;-52.0;NaN;3.96;2.6;299.96;15 / 33;17015;2021-10-20 19:27:00:447
0.926;-13.66;-11.58;-8.4659;1.0439;-4.8411;1.4184;-5.959;-0.3821;0.0303;-4.608;1.2591;0.0;-18.71;33.96;0.79;342.21;-6.11;119.76;0.0;62.926;39.468708;-0.341372;-52.0;NaN;3.96;2.6;299.96;15 / 33;17065;2021-10-20 19:27:00:497
1.8671;-14.299;-6.656;-7.7285;-1.0582;-5.9472;-3.7911;6.6527;15.231;-1.9771;-0.0432;-0.0513;0.0;-19.09;34.09;-1.8;344.29;6.19;127.58;0.0;62.926;39.468708;-0.341372;-52.0;NaN;3.96;2.6;299.96;15 / 33;17115;2021-10-20 19:27:00:547
-3.109;-11.391;4.2791;-7.1347;3.3998;-5.8083;-0.5468;-2.5294;4.6393;-1.8572;0.6556;-0.1957;0.0;-19.09;34.09;-1.8;344.29;6.19;127.58;0.0;62.926;39.468708;-0.341372;-52.0;NaN;3.96;2.6;299.96;15 / 33;17164;2021-10-20 19:27:00:596
-2.0749;-7.532;-4.0849;-9.8019;-0.0766;-0.2681;-0.6101;5.1117;-2.8787;-1.8572;0.6556;-0.1957;0.0;-18.11;34.31;-3.36;341.1;-20.28;129.15;0.0;62.926;39.468708;-0.341372;-52.0;NaN;3.96;2.6;299.96;15 / 33;17214;2021-10-20 19:27:00:646
-2.0149;-9.2869;3.992;-8.7005;-0.6656;4.4819;-1.1321;-4.3984;-5.2766;0.4718;-1.4744;-0.3508;0.0;-16.99;34.09;-6.71;21.97;3.89;62.75;0.0;62.926;39.468708;-0.341372;-52.0;NaN;3.96;2.6;299.96;15 / 33;17265;2021-10-20 19:27:00:697
-2.0149;-9.2869;3.992;-9.3422;-2.9161;-0.6321;-1.1321;-4.3984;-5.2766;1.7619;-2.9914;-0.0386;0.0;-16.99;34.09;-6.71;21.97;3.89;62.75;0.0;59.328;39.468708;-0.341372;-52.0;NaN;3.96;2.6;299.96;15 / 33;17315;2021-10-20 19:27:00:747
4.1141;-10.019;0.093;-9.2608;1.4557;-2.8826;-4.9827;0.3497;-1.522;1.7619;-2.9914;-0.0386;0.0;-16.2;33.41;-12.11;16.62;17.3;93.87;0.0;59.328;39.468708;-0.341372;-52.0;NaN;3.96;2.6;299.96;15 / 33;17365;2021-10-20 19:27:00:797
0.308;-8.782;-1.1681;-9.2608;1.4557;-2.8826;-4.9827;0.3497;-1.522;0.6405;0.748;-0.7011;0.0;-15.19;31.91;-15.66;20.58;-8.54;107.29;0.0;59.328;39.468708;-0.341372;-52.0;NaN;3.96;2.6;299.96;15 / 33;17414;2021-10-20 19:27:00:846
-0.651;-9.718;-0.648;-9.7157;-1.2641;0.4597;-2.612;-0.5013;-2.1797;0.0642;1.988;-0.5349;0.0;-15.19;31.91;-15.66;20.58;-8.54;107.29;0.0;59.328;39.468708;-0.341372;-52.0;NaN;3.96;2.6;299.96;15 / 33;17464;2021-10-20 19:27:00:896
0.447;-9.7939;0.351;-9.7875;-0.4118;0.4262;-0.2535;-0.3359;-1.341;0.0642;1.988;-0.5349;0.0;-14.1;30.71;-18.66;31.86;2.41;87.51;0.0;59.328;39.468708;-0.341372;-52.0;NaN;3.96;2.6;299.96;15 / 33;17514;2021-10-20 19:27:00:946
0.134;-11.1079;-1.491;-9.7875;-0.0239;-0.5842;0.2093;0.5063;-0.1107;0.3983;1.1616;-0.0975;0.0;-14.1;30.71;-18.66;31.86;2.41;87.51;0.0;59.328;39.468708;-0.341372;-52.0;NaN;3.96;2.6;299.96;15 / 33;17565;2021-10-20 19:27:00:997
0.134;-11.1079;-1.491;-9.5768;-2.0016;-0.6991;0.2093;0.5063;-0.1107;0.3983;1.1616;-0.0975;0.0;-12.11;29.76;-21.36;33.99;0.14;93.42;0.0;59.328;39.468708;-0.341372;-52.0;NaN;3.96;2.6;299.96;15 / 33;17615;2021-10-20 19:27:01:047
3.9371;-12.226;-0.3319;-9.4571;-2.2362;-1.3024;-3.601;2.4343;-0.2627;0.0831;1.3843;0.004;0.0;-9.6;28.91;-23.51;37.02;11.77;94.18;0.0;57.338;39.468708;-0.341372;-52.0;NaN;3.96;2.6;299.96;15 / 33;17664;2021-10-20 19:27:01:096
3.26;-13.1719;-3.4489;-9.4571;-2.2362;-1.3024;-3.601;2.4343;-0.2627;-0.4744;2.1502;-0.4135;0.0;-9.6;28.91;-23.51;37.02;11.77;94.18;0.0;57.338;39.468708;-0.34138;-51.7;NaN;4.1;2.5;293.29;15 / 33;17714;2021-10-20 19:27:01:146
3.8081;-11.487;-2.7379;-8.8538;-2.897;-3.0646;-3.4472;4.4752;3.3153;-0.4744;2.1502;-0.4135;0.0;-7.69;29.29;-24.3;31.88;17.18;109.09;0.0;57.338;39.468708;-0.34138;-51.7;NaN;4.1;2.5;293.29;15 / 33;17765;2021-10-20 19:27:01:197
-7.164;-13.425;0.749;-9.5768;2.0399;0.5267;-1.3189;1.6103;-1.4946;-0.7594;2.1612;-0.5005;0.0;-8.4;31.26;-20.7;36.53;-12.01;86.85;0.0;57.338;39.468708;-0.34138;-51.7;NaN;4.1;2.5;293.29;15 / 33;17815;2021-10-20 19:27:01:247
3.056;-11.3261;-1.438;-9.5002;1.1396;2.15;8.1518;7.1263;-3.9276;0.4385;0.045;0.769;0.0;-8.4;31.26;-20.7;36.53;-12.01;86.85;0.0;57.338;39.468708;-0.34138;-51.7;NaN;4.1;2.5;293.29;15 / 33;17865;2021-10-20 19:27:01:297
3.056;-11.3261;-1.438;-9.4619;-0.3639;-2.557;8.1518;7.1263;-3.9276;0.4385;0.045;0.769;0.0;-11.89;33.9;-12.96;25.09;-6.67;77.25;0.0;57.338;39.468708;-0.34138;-51.7;NaN;4.1;2.5;293.29;15 / 33;17915;2021-10-20 19:27:01:347
-0.574;-10.323;-0.428;-8.8633;2.624;3.2705;0.1117;2.2455;2.4058;0.2625;-1.2962;0.8176;0.0;-11.89;33.9;-12.96;25.09;-6.67;77.25;0.0;64.28;39.468708;-0.34138;-51.7;NaN;4.1;2.5;293.29;15 / 33;17964;2021-10-20 19:27:01:396
-1.479;-4.818;1.1771;-8.8633;2.624;3.2705;1.6052;-4.9752;-1.8358;0.2625;-1.2962;0.8176;0.0;-14.81;35.21;-4.8;18.0;-15.52;69.75;0.0;64.28;39.468708;-0.34138;-51.7;NaN;4.1;2.5;293.29;15 / 33;18015;2021-10-20 19:27:01:447
-1.5341;-4.2911;0.308;-9.347;2.8252;-0.8906;1.4104;-5.4923;-0.9741;-0.0446;-1.5443;-0.1066;0.0;-16.91;34.56;2.1;352.84;-16.75;95.44;0.0;64.28;39.468708;-0.34138;-51.7;NaN;4.1;2.5;293.29;15 / 33;18065;2021-10-20 19:27:01:497
-1.539;-3.951;-0.2629;-8.7149;4.458;0.589;1.4104;-5.4923;-0.9741;0.1019;-4.5694;1.3137;0.0;-16.91;34.56;2.1;352.84;-16.75;95.44;0.0;64.28;39.468708;-0.34138;-51.7;NaN;4.1;2.5;293.29;15 / 33;18114;2021-10-20 19:27:01:546
1.22;-14.0359;-13.392;-8.2456;0.5746;-5.2768;0.1944;-3.356;1.8843;0.1019;-4.5694;1.3137;0.0;-18.79;33.49;4.44;352.53;-27.04;86.13;0.0;64.28;39.468708;-0.34138;-51.7;NaN;4.1;2.5;293.29;15 / 33;18165;2021-10-20 19:27:01:597
1.22;-14.0359;-13.392;-7.8865;-1.6712;-5.5881;-4.4593;7.1682;16.8192;-1.7307;-0.4011;0.0353;0.0;-19.5;33.3;1.14;341.4;9.81;125.32;0.0;64.28;39.468708;-0.34138;-51.7;NaN;4.1;2.5;293.29;15 / 33;18215;2021-10-20 19:27:01:647
3.26;-13.296;-5.21;-7.5082;4.1899;-4.7166;-4.4593;7.1682;16.8192;-2.013;1.4249;-0.3041;0.0;-19.5;33.3;1.14;341.4;9.81;125.32;0.0;64.28;39.468708;-0.34138;-51.7;NaN;4.1;2.5;293.29;15 / 33;18264;2021-10-20 19:27:01:696
-4.863;-14.352;5.22;-7.5082;4.1899;-4.7166;2.7603;-2.8326;0.9718;-2.013;1.4249;-0.3041;0.0;-19.39;33.71;-1.5;338.61;-25.29;122.14;0.0;57.444;39.468708;-0.34138;-51.7;NaN;4.1;2.5;293.29;15 / 33;18315;2021-10-20 19:27:01:747
-3.0251;-5.313;-4.579;-9.4188;0.9433;-2.5618;0.6966;4.132;0.2943;0.0921;-0.7956;-0.4837;0.0;-19.39;33.71;-1.5;338.61;-25.29;122.14;0.0;57.444;39.468708;-0.34138;-51.7;NaN;4.1;2.5;293.29;15 / 33;18365;2021-10-20 19:27:01:797
-0.861;-10.228;4.95;-5.4875;0.3735;8.1211;-0.7763;-5.3519;-8.6689;0.0921;-0.7956;-0.4837;0.0;-19.2;33.9;-3.66;357.98;-5.52;105.22;0.0;57.444;39.468708;-0.34138;-51.7;NaN;4.1;2.5;293.29;15 / 33;18414;2021-10-20 19:27:01:846
2.6231;-10.5551;-0.5449;-8.7484;-4.3383;0.8859;-0.7763;-5.3519;-8.6689;1.7826;-3.2509;0.4619;0.0;-18.24;33.3;-8.4;14.73;26.26;84.22;0.0;57.444;39.468708;-0.34138;-51.7;NaN;4.1;2.5;293.29;15 / 33;18464;2021-10-20 19:27:01:896
2.6231;-10.5551;-0.5449;-9.1985;1.8244;-2.8635;-3.8263;0.8942;-0.7284;0.9691;-0.3525;-0.887;0.0;-18.24;33.3;-8.4;14.73;26.26;84.22;0.0;57.444;39.468708;-0.34138;-51.7;NaN;4.1;2.5;293.29;15 / 33;18515;2021-10-20 19:27:01:947
0.926;-8.954;-0.765;-9.7205;-1.2929;0.0287;-2.9906;-0.4224;-1.2668;0.9691;-0.3525;-0.887;0.0;-16.5;32.4;-14.21;17.2;-10.72;107.29;0.0;57.444;39.468708;-0.34138;-51.7;NaN;4.1;2.5;293.29;15 / 33;18565;2021-10-20 19:27:01:997
0.4901;-9.447;0.2651;-9.7444;-0.9768;0.4884;-0.9801;-0.5651;-1.3539;-0.0753;2.3724;-0.7571;0.0;-14.89;30.49;-18.36;29.64;7.58;89.83;0.0;59.95;39.468708;-0.34138;-51.7;NaN;4.1;2.5;293.29;15 / 33;18615;2021-10-20 19:27:02:047
0.825;-9.77;0.725;-9.7444;-0.9768;0.4884;-0.9801;-0.5651;-1.3539;0.2725;1.8795;-0.3371;0.0;-14.89;30.49;-18.36;29.64;7.58;89.83;0.0;59.95;39.468708;-0.34138;-51.7;NaN;4.1;2.5;293.29;15 / 33;18664;2021-10-20 19:27:02:096
-0.181;-11.19;-1.6579;-9.7444;0.6895;-0.8475;0.2557;0.1195;-0.8243;0.2725;1.8795;-0.3371;0.0;-12.49;29.1;-20.7;35.42;-4.03;94.97;0.0;59.95;39.46871;-0.341388;-51.6;NaN;4.19;2.5;302.09;15 / 33;18714;2021-10-20 19:27:02:146
4.662;-12.1091;-0.1459;-9.3422;-2.9305;-0.5602;-3.3403;1.8426;0.199;0.1057;1.7171;-0.004;0.0;-12.49;29.1;-20.7;35.42;-4.03;94.97;0.0;59.95;39.46871;-0.341388;-51.6;NaN;4.19;2.5;302.09;15 / 33;18765;2021-10-20 19:27:02:197
3.8531;-13.8589;-2.613;-9.414;-2.5426;-1.0582;-3.3403;1.8426;0.199;-0.3945;2.4592;-0.3979;0.0;-9.3;28.61;-23.04;36.08;17.39;93.43;0.0;59.95;39.46871;-0.341388;-51.6;NaN;4.19;2.5;302.09;15 / 33;18815;2021-10-20 19:27:02:247
3.8531;-13.8589;-2.613;-9.1219;-2.4852;-2.6097;-3.1207;4.0939;1.9437;-0.3945;2.4592;-0.3979;0.0;-7.39;28.61;-23.64;37.09;15.02;96.41;0.0;59.95;39.46871;-0.341388;-51.6;NaN;4.19;2.5;302.09;15 / 33;18865;2021-10-20 19:27:02:297
2.463;-12.267;-2.017;-9.1267;3.5817;-0.2059;-1.2872;2.5677;1.0635;-0.7593;2.5201;-0.525;0.0;-7.39;28.61;-23.64;37.09;15.02;96.41;0.0;53.93;39.46871;-0.341388;-51.6;NaN;4.19;2.5;302.09;15 / 33;18914;2021-10-20 19:27:02:346
-7.621;-13.5829;-0.007;-9.1267;3.5817;-0.2059;-1.2872;2.5677;1.0635;-0.7593;2.5201;-0.525;0.0;-9.11;30.6;-20.64;39.3;-21.42;91.29;0.0;53.93;39.46871;-0.341388;-51.6;NaN;4.19;2.5;302.09;15 / 33;18965;2021-10-20 19:27:02:397
2.733;-10.5941;-1.1561;-9.3422;-0.182;2.9784;6.7231;5.7393;-3.572;0.1023;0.1953;0.8522;0.0;-12.54;33.36;-13.31;26.23;1.06;72.32;0.0;53.93;39.46871;-0.341388;-51.6;NaN;4.19;2.5;302.09;15 / 33;19015;2021-10-20 19:27:02:447
-1.1891;-10.56;-0.4609;-9.4715;-0.0766;-2.5379;-1.7782;0.8794;4.2444;0.2958;-1.2235;0.78;0.0;-12.54;33.36;-13.31;26.23;1.06;72.32;0.0;53.93;39.46871;-0.341388;-51.6;NaN;4.19;2.5;302.09;15 / 33;19065;2021-10-20 19:27:02:497
-1.29;-5.225;0.464;-9.3326;2.3463;1.8866;1.38;-4.254;-1.7854;0.2958;-1.2235;0.78;0.0;-14.64;35.16;-5.1;1.55;0.45;105.0;0.0;53.93;39.46871;-0.341388;-51.6;NaN;4.19;2.5;302.09;15 / 33;19114;2021-10-20 19:27:02:546
-1.29;-5.225;0.464;-9.5289;1.9632;-1.2354;1.38;-4.254;-1.7854;0.1181;-1.6239;-0.1195;0.0;-14.64;35.16;-5.1;1.55;0.45;105.0;0.0;53.93;39.46871;-0.341388;-51.6;NaN;4.19;2.5;302.09;15 / 33;19164;2021-10-20 19:27:02:596
-1.254;-4.33;0.39;-8.7293;4.2377;1.4365;1.0327;-5.4567;-1.146;0.0953;-4.1239;0.7884;0.0;-17.04;34.86;1.5;352.33;-11.55;97.39;0.0;53.93;39.46871;-0.341388;-51.6;NaN;4.19;2.5;302.09;15 / 33;19215;2021-10-20 19:27:02:647
-0.885;-3.6619;-0.648;-8.7293;4.2377;1.4365;-0.0322;-6.0945;0.0138;0.0953;-4.1239;0.7884;0.0;-19.01;33.36;4.69;355.04;-25.6;80.65;0.0;53.93;39.46871;-0.341388;-51.6;NaN;4.19;2.5;302.09;15 / 33;19264;2021-10-20 19:27:02:696
0.035;-13.1141;-11.439;-8.0924;0.6847;-5.5019;-0.0322;-6.0945;0.0138;-1.0279;-1.7655;0.2434;0.0;-19.01;33.36;4.69;355.04;-25.6;80.65;0.0;62.031;39.46871;-0.341388;-51.6;NaN;4.19;2.5;302.09;15 / 33;19314;2021-10-20 19:27:02:746
1.8311;-16.762;-5.6291;-7.5034;-0.7039;-6.2728;-2.8097;5.7589;15.4726;-1.0279;-1.7655;0.2434;0.0;-19.09;33.11;2.59;337.6;-4.0;124.21;0.0;62.031;39.46871;-0.341388;-51.6;NaN;4.19;2.5;302.09;15 / 33;19364;2021-10-20 19:27:02:796
-6.493;-10.9961;3.312;-5.4875;5.0996;-6.3351;-0.587;-1.384;4.9212;-1.9221;1.103;-0.2069;0.0;-18.71;33.79;-0.24;327.54;-31.32;139.1;0.0;62.031;39.46871;-0.341388;-51.6;NaN;4.19;2.5;302.09;15 / 33;19415;2021-10-20 19:27:02:847
-6.493;-10.9961;3.312;-9.7492;0.8523;0.68;-0.587;-1.384;4.9212;-0.4921;-0.4729;-0.1339;0.0;-18.71;33.79;-0.24;327.54;-31.32;139.1;0.0;62.031;39.46871;-0.341388;-51.6;NaN;4.19;2.5;302.09;15 / 33;19465;2021-10-20 19:27:02:897
-0.1241;-6.6079;-1.979;-6.7756;-4.3431;5.6024;0.3997;5.4717;-4.4569;-0.4921;-0.4729;-0.1339;0.0;-17.7;33.9;-2.76;7.48;-4.98;86.01;0.0;62.031;39.46871;-0.341388;-51.6;NaN;4.19;2.5;302.09;15 / 33;19514;2021-10-20 19:27:02:946
-0.485;-9.124;4.2821;-6.7756;-4.3431;5.6024;-0.9106;-0.3111;-6.6115;1.3978;-2.4834;-0.0018;0.0;-17.7;33.9;-2.76;7.48;-4.98;86.01;0.0;62.031;39.46871;-0.341388;-51.6;NaN;4.19;2.5;302.09;15 / 33;19564;2021-10-20 19:27:02:996
3.633;-10.314;0.339;-9.572;-2.0255;-0.6608;-4.824;0.6564;-1.5614;1.225;-0.6858;-1.3034;0.0;-16.39;33.11;-7.56;7.48;-4.98;86.01;0.0;59.587;39.46871;-0.341388;-51.6;NaN;4.19;2.5;302.09;15 / 33;19614;2021-10-20 19:27:03:046
-0.107;-8.8369;-0.382;-8.983;2.2889;-3.1987;-4.824;0.6564;-1.5614;1.225;-0.6858;-1.3034;0.0;-15.6;32.1;-12.9;14.51;-13.5;109.6;0.0;59.587;39.46871;-0.341388;-51.6;NaN;4.19;2.5;302.09;15 / 33;19665;2021-10-20 19:27:03:097
0.749;-9.663;-0.177;-9.6103;-1.9201;0.3352;-2.7921;-0.8053;-1.9778;0.7468;0.946;-0.8172;0.0;-15.6;32.1;-12.9;14.51;-13.5;109.6;0.0;59.587;39.46872;-0.341402;-51.4;NaN;4.41;2.5;293.29;14 / 33;19715;2021-10-20 19:27:03:147
0.749;-9.663;-0.177;-9.7731;-0.6943;0.4022;-2.7921;-0.8053;-1.9778;0.7468;0.946;-0.8172;0.0;-14.04;31.2;-17.16;27.89;11.29;88.0;0.0;59.587;39.46872;-0.341402;-51.4;NaN;4.41;2.5;293.29;14 / 33;19764;2021-10-20 19:27:03:196
0.579;-9.579;-0.035;-9.7923;-0.3831;-0.4357;-0.7128;-0.5474;-1.0737;0.2076;2.1236;-0.452;0.0;-12.49;30.19;-20.16;32.54;2.24;92.55;0.0;59.587;39.46872;-0.341402;-51.4;NaN;4.41;2.5;293.29;14 / 33;19814;2021-10-20 19:27:03:246
0.761;-10.7659;-1.259;-9.7923;-0.3831;-0.4357;-0.2243;0.303;-0.1019;0.1954;1.9636;-0.241;0.0;-12.49;30.19;-20.16;32.54;2.24;92.55;0.0;59.587;39.46872;-0.341402;-51.4;NaN;4.41;2.5;293.29;14 / 33;19865;2021-10-20 19:27:03:297
4.0931;-12.042;-0.301;-9.5768;-1.7478;-1.1636;-1.7567;1.6258;0.8825;0.1954;1.9636;-0.241;0.0;-10.44;28.8;-22.26;33.84;10.27;96.93;0.0;55.783;39.46872;-0.341402;-51.4;NaN;4.41;2.5;293.29;14 / 33;19914;2021-10-20 19:27:03:346
3.6401;-13.014;-1.91;-9.5529;-1.8579;-1.2115;-1.7567;1.6258;0.8825;-0.2982;2.4197;-0.3613;0.0;-10.44;28.8;-22.26;33.84;10.27;96.93;0.0;55.783;39.46872;-0.341402;-51.4;NaN;4.41;2.5;293.29;14 / 33;19964;2021-10-20 19:27:03:396
1.895;-12.078;-3.8201;-9.232;-1.8914;-2.7246;-2.9185;3.2507;1.2283;-0.7121;2.4432;-0.4471;0.0;-8.04;28.09;-23.51;37.64;10.92;97.23;0.0;55.783;39.46872;-0.341402;-51.4;NaN;4.41;2.5;293.29;14 / 33;20015;2021-10-20 19:27:03:447
-5.421;-11.226;0.6821;-9.7109;1.3024;0.4357;-0.1514;2.3072;-0.0896;-0.7121;2.4432;-0.4471;0.0;-7.39;29.16;-22.8;39.8;-7.63;87.43;0.0;55.783;39.46872;-0.341402;-51.4;NaN;4.41;2.5;293.29;14 / 33;20065;2021-10-20 19:27:03:497
-5.421;-11.226;0.6821;-9.4954;1.2833;2.1021;-0.1514;2.3072;-0.0896;-0.2821;1.18;0.3083;0.0;-7.39;29.16;-22.8;39.8;-7.63;87.43;0.0;55.783;39.46872;-0.341402;-51.4;NaN;4.41;2.5;293.29;14 / 33;20115;2021-10-20 19:27:03:547
2.372;-12.011;0.215;-9.232;-0.0958;-3.304;3.0558;5.9012;-4.4788;0.3745;-0.1493;0.8036;0.0;-10.14;31.99;-17.1;31.24;-7.52;77.52;0.0;55.783;39.46872;-0.341402;-51.4;NaN;4.41;2.5;293.29;14 / 33;20164;2021-10-20 19:27:03:596
-0.6979;-11.312;-1.1081;-9.232;-0.0958;-3.304;1.0077;1.5324;0.3481;0.3745;-0.1493;0.8036;0.0;-13.31;34.61;-8.94;6.64;0.56;109.69;0.0;55.783;39.46872;-0.341402;-51.4;NaN;4.41;2.5;293.29;14 / 33;20214;2021-10-20 19:27:03:646
-0.813;-4.344;1.077;-9.5816;0.5171;2.0303;0.8824;-5.4533;-1.7287;0.2207;-1.147;0.3413;0.0;-13.31;34.61;-8.94;6.64;0.56;109.69;0.0;60.78;39.46872;-0.341402;-51.4;NaN;4.41;2.5;293.29;14 / 33;20265;2021-10-20 19:27:03:697
-1.4689;-4.4561;0.543;-9.3853;2.8395;0.0;0.8824;-5.4533;-1.7287;0.2207;-1.147;0.3413;0.0;-14.81;34.86;-1.31;1.96;-16.83;90.0;0.0;60.78;39.46872;-0.341402;-51.4;NaN;4.41;2.5;293.29;14 / 33;20315;2021-10-20 19:27:03:747
-0.7061;-3.5471;-0.2561;-9.0357;3.5961;1.2881;1.291;-5.7101;-1.5688;0.0678;-2.9205;0.3959;0.0;-14.81;34.86;-1.31;1.96;-16.83;90.0;0.0;60.78;39.46872;-0.341402;-51.4;NaN;4.41;2.5;293.29;14 / 33;20365;2021-10-20 19:27:03:797
-0.7061;-3.5471;-0.2561;-8.3222;0.9768;-5.0949;-0.4042;-4.6012;1.6139;-0.1684;-3.8545;0.8682;0.0;-16.5;33.96;3.6;356.2;-21.5;81.89;0.0;60.78;39.46872;-0.341402;-51.4;NaN;4.41;2.5;293.29;14 / 33;20414;2021-10-20 19:27:03:846
-0.181;-14.0449;-10.4119;-6.9911;-0.3208;-6.8666;-0.4042;-4.6012;1.6139;-0.1684;-3.8545;0.8682;0.0;-16.99;33.9;2.46;341.96;-5.72;121.47;0.0;60.78;39.46872;-0.341402;-51.4;NaN;4.41;2.5;293.29;14 / 33;20464;2021-10-20 19:27:03:896
0.828;-14.424;-6.367;-6.9911;-0.3208;-6.8666;-1.8837;7.8311;15.451;-2.3378;1.1194;0.0301;0.0;-16.99;33.9;2.46;341.96;-5.72;121.47;0.0;60.78;39.46872;-0.341402;-51.4;NaN;4.41;2.5;293.29;14 / 33;20514;2021-10-20 19:27:03:946
-4.428;-7.939;-0.686;-5.1619;3.2944;-7.6567;1.4037;-5.7205;2.469;-1.6445;0.7167;0.0645;0.0;-16.69;33.96;-0.41;333.94;-19.63;146.01;0.0;58.059;39.46872;-0.341402;-51.4;NaN;4.41;2.5;293.29;14 / 33;20565;2021-10-20 19:27:03:997
0.363;-10.419;-4.612;-9.4332;0.7757;2.5666;1.4037;-5.7205;2.469;-1.6445;0.7167;0.0645;0.0;-16.14;34.09;-2.4;10.61;-4.54;74.78;0.0;58.059;39.46872;-0.341402;-51.4;NaN;4.41;2.5;293.29;14 / 33;20615;2021-10-20 19:27:04:047
0.701;-5.4161;6.2831;-9.2464;-2.9975;1.3024;-1.2204;1.2088;1.3125;0.8243;-2.0303;-0.2546;0.0;-16.14;34.09;-2.4;10.61;-4.54;74.78;0.0;58.059;39.46872;-0.341402;-51.4;NaN;4.41;2.5;293.29;14 / 33;20664;2021-10-20 19:27:04:096
0.701;-5.4161;6.2831;-9.6917;0.1724;-1.4988;-1.888;-3.9931;-8.8047;0.8243;-2.0303;-0.2546;0.0;-15.6;33.9;-6.41;12.47;17.8;81.98;0.0;58.059;39.468727;-0.341417;-51.4;NaN;4.6;2.6;296.78;14 / 33;20714;2021-10-20 19:27:04:146
3.035;-11.848;-0.753;-9.4092;1.3503;-2.4134;-3.3697;0.0621;-1.3527;1.4975;-2.3723;-0.3719;0.0;-15.6;33.9;-6.41;12.47;17.8;81.98;0.0;58.059;39.468727;-0.341417;-51.4;NaN;4.6;2.6;296.78;14 / 33;20765;2021-10-20 19:27:04:197
-2.135;-9.0431;-3.056;-9.4092;1.3503;-2.4134;-3.3697;0.0621;-1.3527;0.7061;0.5331;-0.5661;0.0;-15.24;33.19;-11.1;12.47;17.8;81.98;0.0;58.059;39.468727;-0.341417;-51.4;NaN;4.6;2.6;296.78;14 / 33;20815;2021-10-20 19:27:04:247
1.919;-9.976;0.414;-9.3134;-2.8874;1.0487;-3.4524;-0.421;-2.0666;0.7061;0.5331;-0.5661;0.0;-13.99;32.4;-14.64;25.73;17.12;83.58;0.0;58.748;39.468727;-0.341417;-51.4;NaN;4.6;2.6;296.78;14 / 33;20864;2021-10-20 19:27:04:296
0.213;-9.416;0.438;-9.8019;0.2442;-0.0287;0.0442;-0.5451;-0.9849;0.0828;2.156;-0.5017;0.0;-13.99;32.4;-14.64;25.73;17.12;83.58;0.0;58.748;39.468727;-0.341417;-51.4;NaN;4.6;2.6;296.78;14 / 33;20914;2021-10-20 19:27:04:346
-0.033;-10.414;-0.885;-9.8019;0.1484;-0.1867;0.0442;-0.5451;-0.9849;0.483;1.539;-0.3437;0.0;-12.6;30.9;-17.94;30.36;-1.43;90.17;0.0;58.748;39.468727;-0.341417;-51.4;NaN;4.6;2.6;296.78;14 / 33;20965;2021-10-20 19:27:04:397
-0.033;-10.414;-0.885;-9.6007;-0.723;-1.8531;0.1264;0.6304;0.0971;0.483;1.539;-0.3437;0.0;-11.1;29.7;-20.76;30.87;4.23;100.92;0.0;58.748;39.468727;-0.341417;-51.4;NaN;4.6;2.6;296.78;14 / 33;21015;2021-10-20 19:27:04:447
2.7071;-11.874;-1.797;-9.1075;-3.5386;-0.8188;-2.5348;2.0835;1.0773;-0.0399;1.6616;-0.0034;0.0;-11.1;29.7;-20.76;30.87;4.23;100.92;0.0;58.748;39.468727;-0.341417;-51.4;NaN;4.6;2.6;296.78;14 / 33;21065;2021-10-20 19:27:04:497
3.224;-12.425;-2.113;-9.1075;-3.5386;-0.8188;-2.7129;2.6633;1.28;-0.0399;1.6616;-0.0034;0.0;-9.11;28.91;-22.44;34.26;21.16;95.14;0.0;58.748;39.468727;-0.341417;-51.4;NaN;4.6;2.6;296.78;14 / 33;21115;2021-10-20 19:27:04:547
3.312;-12.1781;-3.26;-9.1075;-2.9305;-2.1691;-2.7129;2.6633;1.28;-0.5743;2.4592;-0.532;0.0;-9.11;28.91;-22.44;34.26;21.16;95.14;0.0;58.748;39.468727;-0.341417;-51.4;NaN;4.6;2.6;296.78;14 / 33;21164;2021-10-20 19:27:04:596
-5.6479;-11.609;0.308;-9.7683;0.7997;0.3926;-0.723;1.9117;-0.1921;-0.498;2.0628;-0.4367;0.0;-8.4;29.51;-21.9;31.04;17.38;103.4;0.0;52.108;39.468727;-0.341417;-51.4;NaN;4.6;2.6;296.78;14 / 33;21214;2021-10-20 19:27:04:646
-1.103;-13.095;2.18;-9.0166;3.4429;1.7334;7.4447;7.1738;-4.3843;-0.498;2.0628;-0.4367;0.0;-10.69;32.46;-16.56;34.51;-20.55;79.12;0.0;52.108;39.468727;-0.341417;-51.4;NaN;4.6;2.6;296.78;14 / 33;21265;2021-10-20 19:27:04:697
0.38;-11.7709;-2.7521;-8.7724;-1.7717;-4.0127;-1.8992;1.3793;4.2286;0.6007;-0.6084;1.0567;0.0;-10.69;32.46;-16.56;34.51;-20.55;79.12;0.0;52.108;39.468727;-0.341417;-51.4;NaN;4.6;2.6;296.78;14 / 33;21315;2021-10-20 19:27:04:747
0.38;-11.7709;-2.7521;-9.4523;1.2258;2.3032;-1.8992;1.3793;4.2286;0.2454;-1.8426;0.8003;0.0;-13.31;34.91;-7.5;2.88;10.41;114.58;0.0;52.108;39.468727;-0.341417;-51.4;NaN;4.6;2.6;296.78;14 / 33;21365;2021-10-20 19:27:04:797
-1.165;-4.507;1.7561;-9.4667;2.5235;-0.4549;0.9372;-5.2862;-2.4187;0.2454;-1.8426;0.8003;0.0;-15.19;34.8;0.54;4.49;-7.18;76.31;0.0;52.108;39.468727;-0.341417;-51.4;NaN;4.6;2.6;296.78;14 / 33;21415;2021-10-20 19:27:04:847
-1.402;-4.933;-0.239;-9.4667;2.5235;-0.4549;1.1591;-4.8489;-0.4613;-0.171;-1.8044;-0.2331;0.0;-15.19;34.8;0.54;4.49;-7.18;76.31;0.0;52.108;39.468727;-0.341417;-51.4;NaN;4.6;2.6;296.78;14 / 33;21464;2021-10-20 19:27:04:896
-1.1561;-3.525;0.0551;-9.0788;3.3327;1.6185;1.1591;-4.8489;-0.4613;0.1328;-4.6163;1.0945;0.0;-16.69;33.36;5.94;353.33;-19.87;79.89;0.0;63.972;39.468727;-0.341417;-51.4;NaN;4.6;2.6;296.78;14 / 33;21515;2021-10-20 19:27:04:947
-1.5529;-12.9829;-8.329;-8.7197;1.719;-4.142;-0.2795;-5.2008;0.827;0.1328;-4.6163;1.0945;0.0;-16.69;33.36;5.94;353.33;-19.87;79.89;0.0;63.972;39.468727;-0.341417;-51.4;NaN;4.6;2.6;296.78;14 / 33;21565;2021-10-20 19:27:04:997
2.178;-13.603;-9.3229;-6.3734;-0.5219;-7.4364;-1.4807;5.7033;14.6201;-1.891;0.1229;0.0843;0.0;-17.94;32.81;6.19;336.4;-10.1;115.41;0.0;63.972;39.468727;-0.341417;-51.4;NaN;4.6;2.6;296.78;14 / 33;21614;2021-10-20 19:27:05:046
2.178;-13.603;-9.3229;-6.268;-0.0479;-7.5465;-1.4807;5.7033;14.6201;-1.891;0.1229;0.0843;0.0;-18.49;33.3;2.89;334.97;3.05;139.4;0.0;63.972;39.468727;-0.341417;-51.4;NaN;4.6;2.6;296.78;14 / 33;21665;2021-10-20 19:27:05:097
-2.276;-5.718;-4.1689;-9.1458;1.7573;3.0789;-1.1073;-4.1966;3.4219;-1.9057;1.4025;-0.0962;0.0;-18.49;33.3;2.89;334.97;3.05;139.4;0.0;63.972;39.468723;-0.34143;-51.4;NaN;4.43;2.7;236.5;14 / 33;21715;2021-10-20 19:27:05:147
0.6941;-15.781;0.998;-9.1458;1.7573;3.0789;3.1891;11.8553;-10.5383;0.2874;-0.9809;-0.67;0.0;-18.0;33.49;1.2;9.28;-10.32;71.39;0.0;63.972;39.468723;-0.34143;-51.4;NaN;4.43;2.7;236.5;14 / 33;21764;2021-10-20 19:27:05:196
-0.3109;-4.344;5.744;-8.5042;4.8507;-0.5698;-0.7219;-5.0009;-8.5691;0.2874;-0.9809;-0.67;0.0;-18.3;33.49;-2.34;2.3;-29.64;93.83;0.0;58.876;39.468723;-0.34143;-51.4;NaN;4.43;2.7;236.5;14 / 33;21814;2021-10-20 19:27:05:246
4.923;-12.114;0.533;-9.7636;-0.7183;-0.5411;-0.7219;-5.0009;-8.5691;1.4996;-2.749;0.1823;0.0;-18.3;33.49;-2.34;2.3;-29.64;93.83;0.0;58.876;39.468723;-0.34143;-51.4;NaN;4.43;2.7;236.5;14 / 33;21865;2021-10-20 19:27:05:297
-2.2331;-9.39;-3.64;-9.3565;0.905;-2.7916;-6.2182;2.5565;-2.3304;0.7798;-0.0309;-0.6673;0.0;-18.19;33.66;-7.44;9.65;4.2;93.17;0.0;58.876;39.468723;-0.34143;-51.4;NaN;4.43;2.7;236.5;14 / 33;21915;2021-10-20 19:27:05:347
-2.2331;-9.39;-3.64;-9.4571;-2.5426;0.4932;-1.2981;-1.1486;0.1408;0.7798;-0.0309;-0.6673;0.0;-18.19;33.66;-7.44;9.65;4.2;93.17;0.0;58.876;39.468723;-0.34143;-51.4;NaN;4.43;2.7;236.5;14 / 33;21964;2021-10-20 19:27:05:396
2.3381;-9.677;-0.045;-9.7683;-0.7661;0.4118;-1.2981;-1.1486;0.1408;-0.0113;2.2799;-0.778;0.0;-16.91;32.76;-11.51;19.61;15.03;87.01;0.0;58.876;39.468723;-0.34143;-51.4;NaN;4.43;2.7;236.5;14 / 33;22014;2021-10-20 19:27:05:446
0.7631;-9.234;0.3251;-9.7683;-0.7661;0.4118;-0.8157;-0.3875;-1.4924;-0.0113;2.2799;-0.778;0.0;-15.19;31.09;-15.3;26.0;4.48;87.59;0.0;58.876;39.468723;-0.34143;-51.4;NaN;4.43;2.7;236.5;14 / 33;22065;2021-10-20 19:27:05:497
-0.0311;-10.409;-0.1931;-9.8066;0.067;-0.1963;0.2275;0.3936;-0.802;0.0448;1.7787;-0.1287;0.0;-15.19;31.09;-15.3;26.0;4.48;87.59;0.0;57.729;39.468723;-0.34143;-51.4;NaN;4.43;2.7;236.5;14 / 33;22114;2021-10-20 19:27:05:546
1.8761;-11.2811;-1.402;-9.6822;-0.6416;-1.4126;0.2275;0.3936;-0.802;0.2042;1.5601;-0.0021;0.0;-13.61;29.51;-18.11;30.65;-0.39;91.15;0.0;57.729;39.468723;-0.34143;-51.4;NaN;4.43;2.7;236.5;14 / 33;22164;2021-10-20 19:27:05:596
2.2691;-12.195;-1.491;-9.4667;-2.5139;-0.5219;-1.494;1.5069;0.6378;0.2042;1.5601;-0.0021;0.0;-11.7;28.99;-20.34;31.6;14.85;93.16;0.0;57.729;39.468723;-0.34143;-51.4;NaN;4.43;2.7;236.5;14 / 33;22215;2021-10-20 19:27:05:647
2.2691;-12.195;-1.491;-9.1411;-1.6137;-3.1603;-1.671;2.7783;2.0117;-0.1877;2.1352;-0.2644;0.0;-11.7;28.99;-20.34;31.6;14.85;93.16;0.0;57.729;39.468723;-0.34143;-51.4;NaN;4.43;2.7;236.5;14 / 33;22264;2021-10-20 19:27:05:696
3.2171;-13.818;-4.04;-9.4571;-2.3367;-1.1301;-2.2292;2.7353;2.8843;-0.7837;2.3045;-0.3178;0.0;-10.31;29.81;-20.7;27.19;9.47;109.07;0.0;57.729;39.468723;-0.34143;-51.4;NaN;4.43;2.7;236.5;14 / 33;22315;2021-10-20 19:27:05:747
0.4331;-10.934;0.777;-9.4571;-2.3367;-1.1301;-2.2292;2.7353;2.8843;-0.7837;2.3045;-0.3178;0.0;-10.31;29.81;-20.7;27.19;9.47;109.07;0.0;57.729;39.468723;-0.34143;-51.4;NaN;4.43;2.7;236.5;14 / 33;22365;2021-10-20 19:27:05:797
-4.911;-17.533;4.181;-8.6096;4.5346;1.245;9.1068;5.6898;-3.4658;-0.1829;0.7875;0.5283;0.0;-11.04;31.69;-16.86;27.19;9.47;109.07;0.0;57.729;39.468723;-0.34143;-51.4;NaN;4.43;2.7;236.5;14 / 33;22414;2021-10-20 19:27:05:846
0.6461;-12.348;-4.981;-9.0501;-1.9537;-3.237;9.1068;5.6898;-3.4658;-0.1829;0.7875;0.5283;0.0;-13.5;34.2;-8.76;5.87;11.49;109.68;0.0;57.199;39.468723;-0.34143;-51.4;NaN;4.43;2.7;236.5;14 / 33;22464;2021-10-20 19:27:05:896
-0.868;-4.863;1.9931;-9.7205;0.7997;1.0295;-0.1526;2.6005;3.9353;0.2646;-0.3486;0.5778;0.0;-13.5;34.2;-8.76;5.87;11.49;109.68;0.0;57.199;39.468723;-0.34143;-51.4;NaN;4.43;2.7;236.5;14 / 33;22515;2021-10-20 19:27:05:947
-0.868;-4.863;1.9931;-9.3182;2.7916;1.2354;0.8419;-4.9039;-2.8769;0.2861;-1.9475;0.1636;0.0;-15.9;34.56;-0.6;4.56;-4.68;83.95;0.0;57.199;39.468723;-0.34143;-51.4;NaN;4.43;2.7;236.5;14 / 33;22565;2021-10-20 19:27:05:997
-1.2251;-4.559;-0.165;-9.1506;3.4429;0.7757;0.9516;-5.4096;-0.9045;0.2861;-1.9475;0.1636;0.0;-17.21;33.36;5.4;351.86;-20.55;85.15;0.0;57.199;39.468723;-0.34143;-51.4;NaN;4.43;2.7;236.5;14 / 33;22614;2021-10-20 19:27:06:046
-1.2799;-3.7069;0.26;-9.1506;3.4429;0.7757;0.9516;-5.4096;-0.9045;0.2872;-4.2368;0.7447;0.0;-17.21;33.36;5.4;351.86;-20.55;85.15;0.0;57.199;39.468723;-0.34143;-51.4;NaN;4.43;2.7;236.5;14 / 33;22664;2021-10-20 19:27:06:096
-0.921;-9.3491;-5.33;-9.1937;0.6895;-3.3375;-0.4079;-5.9858;-0.235;-0.891;-1.951;0.2223;0.0;-17.94;33.0;6.6;338.26;-4.03;109.95;0.0;57.199;39.46872;-0.34144;-51.4;NaN;4.21;2.8;252.37;14 / 33;22715;2021-10-20 19:27:06:147
0.7061;-15.407;-16.7741;-6.7038;-0.2394;-7.1539;-1.7498;5.9883;15.3926;-0.891;-1.951;0.2223;0.0;-17.94;33.0;6.6;338.26;-4.03;109.95;0.0;62.536;39.46872;-0.34144;-51.4;NaN;4.21;2.8;252.37;14 / 33;22765;2021-10-20 19:27:06:197
-2.166;-4.552;-5.783;-9.0501;0.0479;-3.778;-0.9966;0.7446;1.6556;-2.0894;1.3464;0.0085;0.0;-18.0;33.3;3.79;334.47;1.4;136.86;0.0;62.536;39.46872;-0.34144;-51.4;NaN;4.21;2.8;252.37;14 / 33;22815;2021-10-20 19:27:06:247
-3.231;-19.3781;6.3281;-8.9016;3.4429;2.2553;-0.9966;0.7446;1.6556;-1.0824;0.2195;0.0899;0.0;-17.4;34.09;1.74;4.94;-20.55;75.78;0.0;62.536;39.46872;-0.34144;-51.4;NaN;4.21;2.8;252.37;14 / 33;22864;2021-10-20 19:27:06:296
-3.231;-19.3781;6.3281;-9.0644;0.1101;-3.7445;2.2178;10.2694;-9.836;-1.0824;0.2195;0.0899;0.0;-17.4;34.09;1.74;4.94;-20.55;75.78;0.0;62.536;39.46872;-0.34144;-51.4;NaN;4.21;2.8;252.37;14 / 33;22914;2021-10-20 19:27:06:346
1.448;-3.9799;-1.5311;-8.7771;0.8811;4.2856;-2.6632;-5.2637;-1.5226;0.8916;-1.8811;-0.1651;0.0;-16.69;34.86;-0.66;350.92;-0.64;112.45;0.0;62.536;39.46872;-0.34144;-51.4;NaN;4.21;2.8;252.37;14 / 33;22964;2021-10-20 19:27:06:396
-1.1959;-13.6459;-1.718;-8.7771;0.8811;4.2856;-2.6632;-5.2637;-1.5226;0.8916;-1.8811;-0.1651;0.0;-16.09;34.09;-5.4;19.36;-5.15;63.98;0.0;62.536;39.46872;-0.34144;-51.4;NaN;4.21;2.8;252.37;14 / 33;23015;2021-10-20 19:27:06:447
0.162;-9.519;-1.517;-9.2081;-3.3519;0.4022;-3.8525;2.824;-0.7983;1.3394;-1.8263;-0.945;0.0;-16.09;34.09;-5.4;19.36;-5.15;63.98;0.0;58.768;39.46872;-0.34144;-51.4;NaN;4.21;2.8;252.37;14 / 33;23065;2021-10-20 19:27:06:497
1.811;-9.067;0.842;-9.6391;1.1827;-1.3503;0.4779;-1.1794;0.1429;0.7061;0.4906;-0.5037;0.0;-15.71;32.59;-10.31;14.06;-6.93;97.97;0.0;58.768;39.46872;-0.34144;-51.4;NaN;4.21;2.8;252.37;14 / 33;23114;2021-10-20 19:27:06:546
-0.275;-9.38;-0.5981;-9.7923;-0.3496;-0.4022;0.4779;-1.1794;0.1429;0.7061;0.4906;-0.5037;0.0;-15.71;32.59;-10.31;14.06;-6.93;97.97;0.0;58.768;39.46872;-0.34144;-51.4;NaN;4.21;2.8;252.37;14 / 33;23164;2021-10-20 19:27:06:596
-0.275;-9.38;-0.5981;-9.7875;-0.589;-0.0287;0.1002;-0.3889;-0.3573;0.1678;1.9425;-0.2266;0.0;-14.89;31.31;-14.46;22.98;2.04;92.35;0.0;58.768;39.46872;-0.34144;-51.4;NaN;4.21;2.8;252.37;14 / 33;23215;2021-10-20 19:27:06:647
0.471;-9.73;-0.119;-9.7588;-0.4357;-0.8859;-0.517;-0.0468;-0.7167;0.3587;1.837;-0.2905;0.0;-13.14;30.3;-18.06;30.31;3.44;90.17;0.0;58.768;39.46872;-0.34144;-51.4;NaN;4.21;2.8;252.37;14 / 33;23265;2021-10-20 19:27:06:697
0.191;-11.628;-1.563;-9.7588;-0.4357;-0.8859;-0.517;-0.0468;-0.7167;0.3587;1.837;-0.2905;0.0;-13.14;30.3;-18.06;30.31;3.44;90.17;0.0;58.768;39.46872;-0.34144;-51.4;NaN;4.21;2.8;252.37;14 / 33;23315;2021-10-20 19:27:06:747
5.0261;-12.3941;-0.296;-9.3134;-3.0119;-0.5698;-0.8683;2.4764;1.1049;-0.0969;2.2499;-0.1968;0.0;-10.74;29.29;-20.94;32.9;17.89;93.5;0.0;58.768;39.46872;-0.34144;-51.4;NaN;4.21;2.8;252.37;14 / 33;23365;2021-10-20 19:27:06:797
4.437;-14.11;-3.372;-9.3134;-2.3846;-1.9249;-2.5963;2.6932;1.7708;-0.0969;2.2499;-0.1968;0.0;-8.29;29.21;-22.01;32.63;14.08;101.68;0.0;53.601;39.46872;-0.34144;-51.4;NaN;4.21;2.8;252.37;14 / 33;23415;2021-10-20 19:27:06:847
2.565;-11.1401;-0.382;-9.0549;-2.7868;-2.5379;-2.4371;1.629;2.0863;-0.6055;2.831;-0.4775;0.0;-8.29;29.21;-22.01;32.63;14.08;101.68;0.0;53.601;39.46872;-0.34144;-51.4;NaN;4.21;2.8;252.37;14 / 33;23465;2021-10-20 19:27:06:897
2.565;-11.1401;-0.382;-8.8538;4.2138;0.1341;-2.4371;1.629;2.0863;-0.5361;2.3671;-0.342;0.0;-7.91;30.79;-20.7;28.32;16.51;105.66;0.0;53.601;39.46872;-0.34144;-51.4;NaN;4.21;2.8;252.37;14 / 33;23514;2021-10-20 19:27:06:946
-7.3909;-15.702;1.665;-9.7061;-0.2107;1.3695;6.9617;2.1601;-1.4065;-0.5361;2.3671;-0.342;0.0;-7.91;30.79;-20.7;28.32;16.51;105.66;0.0;53.601;39.46872;-0.34144;-51.4;NaN;4.21;2.8;252.37;14 / 33;23564;2021-10-20 19:27:06:996
2.178;-10.809;-2.97;-9.7061;-0.2107;1.3695;-1.4321;1.064;2.0615;0.6025;-0.2333;0.9118;0.0;-11.21;33.41;-14.1;24.89;1.23;81.97;0.0;53.601;39.46872;-0.34144;-51.4;NaN;4.21;2.8;252.37;14 / 33;23615;2021-10-20 19:27:07:047
-0.686;-9.414;0.258;-9.6869;0.2442;-1.5083;0.8567;-0.3662;-0.9747;0.2582;-1.7832;0.7883;0.0;-15.11;34.56;-4.91;4.35;-1.43;98.85;0.0;53.601;39.46872;-0.34144;-51.4;NaN;4.21;2.8;252.37;14 / 33;23665;2021-10-20 19:27:07:097
-1.522;-4.737;0.732;-8.8921;2.9401;2.9161;0.8567;-0.3662;-0.9747;0.2582;-1.7832;0.7883;0.0;-15.11;34.56;-4.91;4.35;-1.43;98.85;0.0;63.853;39.468727;-0.341453;-51.3;NaN;4.05;2.8;284.0;14 / 33;23715;2021-10-20 19:27:07:147
-1.649;-3.966;0.9041;-9.0644;3.6775;0.6943;1.5443;-4.9501;-0.6396;-0.1261;-2.4538;0.0683;0.0;-17.64;33.9;3.06;5.83;-17.44;71.84;0.0;63.853;39.468727;-0.341453;-51.3;NaN;4.05;2.8;284.0;14 / 33;23764;2021-10-20 19:27:07:196
-1.649;-3.966;0.9041;-8.7149;4.4915;-0.1676;1.1021;-6.0351;-1.1275;-0.1261;-2.4538;0.0683;0.0;-19.39;32.7;7.8;338.0;-27.26;91.1;0.0;63.853;39.468727;-0.341453;-51.3;NaN;4.05;2.8;284.0;14 / 33;23814;2021-10-20 19:27:07:246
-1.9669;-5.1221;-1.4291;-7.8003;0.249;-5.9376;1.1021;-6.0351;-1.1275;-0.0067;-4.4059;1.4576;0.0;-19.39;32.7;7.8;338.0;-27.26;91.1;0.0;63.853;39.468727;-0.341453;-51.3;NaN;4.05;2.8;284.0;14 / 33;23864;2021-10-20 19:27:07:296
1.575;-14.905;-16.037;-7.8003;0.249;-5.9376;-1.1825;3.1274;8.9858;-2.0365;0.0793;-0.0507;0.0;-20.4;32.46;5.89;331.94;-1.45;127.28;0.0;63.853;39.468727;-0.341453;-51.3;NaN;4.05;2.8;284.0;14 / 33;23915;2021-10-20 19:27:07:347
0.6311;-10.97;-4.856;-8.7532;-0.8428;-4.3383;-1.9536;1.5572;2.4168;-2.0365;0.0793;-0.0507;0.0;-20.4;32.46;5.89;331.94;-1.45;127.28;0.0;63.853;39.468727;-0.341453;-51.3;NaN;4.05;2.8;284.0;14 / 33;23965;2021-10-20 19:27:07:397
-5.072;-18.134;6.0461;-8.4132;3.7589;-3.3615;-1.9536;1.5572;2.4168;-1.9041;1.0824;-0.1954;0.0;-20.89;33.11;3.36;340.74;4.93;116.36;0.0;57.373;39.468727;-0.341453;-51.3;NaN;4.05;2.8;284.0;14 / 33;24015;2021-10-20 19:27:07:447
-2.448;-4.37;-2.053;-9.0022;1.6999;-3.5003;0.0038;7.9987;-12.0925;0.2525;-1.2409;-0.4498;0.0;-20.29;33.6;1.44;344.9;-9.98;111.25;0.0;57.373;39.468727;-0.341453;-51.3;NaN;4.05;2.8;284.0;14 / 33;24064;2021-10-20 19:27:07:496
0.548;-11.867;3.3701;-7.2784;-1.4509;6.4117;-2.3422;-5.477;-2.7617;0.2525;-1.2409;-0.4498;0.0;-20.29;33.6;1.44;344.9;-9.98;111.25;0.0;57.373;39.468727;-0.341453;-51.3;NaN;4.05;2.8;284.0;14 / 33;24115;2021-10-20 19:27:07:547
0.548;-11.867;3.3701;-9.3182;-3.0023;-0.5602;-4.1179;3.8103;-1.3484;1.7791;-2.8951;-0.1235;0.0;-19.5;33.3;-3.6;24.37;8.51;48.62;0.0;57.373;39.468727;-0.341453;-51.3;NaN;4.05;2.8;284.0;14 / 33;24164;2021-10-20 19:27:07:596
0.624;-9.792;-1.656;-9.4858;0.972;-2.2841;-4.1179;3.8103;-1.3484;0.6966;0.252;-0.9459;0.0;-19.09;31.99;-8.94;12.15;17.83;93.44;0.0;57.373;39.468727;-0.341453;-51.3;NaN;4.05;2.8;284.0;14 / 33;24214;2021-10-20 19:27:07:646
1.419;-8.8661;0.114;-9.4858;0.972;-2.2841;0.1529;-0.6694;1.2;0.6966;0.252;-0.9459;0.0;-19.09;31.99;-8.94;12.15;17.83;93.44;0.0;57.373;39.468727;-0.341453;-51.3;NaN;4.05;2.8;284.0;14 / 33;24265;2021-10-20 19:27:07:697
0.6701;-9.3109;-0.1099;-9.7252;-1.0822;-0.6081;-1.3913;0.0199;-0.2994;-0.1299;2.2363;-0.5248;0.0;-18.9;31.61;-13.2;19.13;6.34;93.58;0.0;57.373;39.468727;-0.341453;-51.3;NaN;4.05;2.8;284.0;14 / 33;24314;2021-10-20 19:27:07:746
0.0431;-10.031;0.1811;-9.7827;-0.5507;0.3974;-1.3913;0.0199;-0.2994;-0.1299;2.2363;-0.5248;0.0;-18.9;31.61;-13.2;19.13;6.34;93.58;0.0;57.373;39.468727;-0.341453;-51.3;NaN;4.05;2.8;284.0;14 / 33;24365;2021-10-20 19:27:07:797
0.339;-11.065;-1.251;-9.7779;0.1053;-0.7709;-0.0118;0.2578;-1.0602;0.3156;1.6237;-0.3096;0.0;-17.59;31.09;-16.74;29.03;3.22;87.67;0.0;57.713;39.468727;-0.341453;-51.3;NaN;4.05;2.8;284.0;14 / 33;24415;2021-10-20 19:27:07:847
0.339;-11.065;-1.251;-9.3278;-2.873;-0.9337;-0.7595;1.6994;1.0759;0.1213;1.5637;0.0166;0.0;-15.19;30.06;-19.5;30.78;-0.62;94.51;0.0;57.713;39.468727;-0.341453;-51.3;NaN;4.05;2.8;284.0;14 / 33;24464;2021-10-20 19:27:07:896
4.4951;-12.59;-0.801;-9.1842;-2.5522;-2.2984;-2.9091;2.8808;1.364;0.1213;1.5637;0.0166;0.0;-15.19;30.06;-19.5;30.78;-0.62;94.51;0.0;57.713;39.468727;-0.341453;-51.3;NaN;4.05;2.8;284.0;14 / 33;24515;2021-10-20 19:27:07:947
4.406;-14.325;-4.0759;-9.1842;-2.5522;-2.2984;-2.9091;2.8808;1.364;-0.5152;2.4757;-0.3699;0.0;-12.71;30.19;-21.71;28.4;15.09;104.05;0.0;57.713;39.468727;-0.341453;-51.3;NaN;4.05;2.8;284.0;14 / 33;24565;2021-10-20 19:27:07:997
3.2141;-11.7;0.0191;-9.0261;-2.8826;-2.5283;-3.6748;4.4033;3.1522;-0.8532;2.6465;-0.4936;0.0;-11.51;31.2;-20.64;26.09;17.09;105.65;0.0;57.713;39.468727;-0.341453;-51.3;NaN;4.05;2.8;284.0;14 / 33;24615;2021-10-20 19:27:08:047
-8.6689;-15.8381;2.2061;-8.3127;5.1811;0.4597;8.5099;1.9689;-1.9413;-0.8532;2.6465;-0.4936;0.0;-11.51;31.2;-20.64;26.09;17.09;105.65;0.0;57.713;39.468727;-0.341453;-51.3;NaN;4.05;2.8;284.0;14 / 33;24665;2021-10-20 19:27:08:097
3.9851;-11.367;-4.31;-9.7061;-1.3838;0.2155;8.5099;1.9689;-1.9413;0.4784;-0.0512;0.8499;0.0;-14.34;32.89;-13.44;33.21;-31.89;86.83;0.0;54.193;39.468735;-0.341468;-51.2;NaN;4.01;2.8;299.48;14 / 33;24714;2021-10-20 19:27:08:146
3.9851;-11.367;-4.31;-9.6726;0.6608;-1.47;-3.3183;1.6218;3.3474;0.4784;-0.0512;0.8499;0.0;-14.34;32.89;-13.44;33.21;-31.89;86.83;0.0;54.193;39.468735;-0.341468;-51.2;NaN;4.01;2.8;299.48;14 / 33;24764;2021-10-20 19:27:08:196
-0.576;-7.7569;0.911;-8.5329;3.2034;3.6152;0.7139;-2.0226;-1.703;0.2655;-1.482;0.8359;0.0;-17.81;33.96;-5.04;3.92;-3.86;98.64;0.0;54.193;39.468735;-0.341468;-51.2;NaN;4.01;2.8;299.48;14 / 33;24815;2021-10-20 19:27:08:247
-1.254;-4.6811;0.342;-8.5329;3.2034;3.6152;1.3394;-5.1081;-1.0593;-0.011;-1.7204;-0.3578;0.0;-20.1;33.06;2.34;13.45;-19.07;67.04;0.0;54.193;39.468735;-0.341468;-51.2;NaN;4.01;2.8;299.48;14 / 33;24865;2021-10-20 19:27:08:297
-2.072;-4.851;0.399;-9.2847;3.146;-0.3065;1.3394;-5.1081;-1.0593;-0.011;-1.7204;-0.3578;0.0;-20.1;33.06;2.34;13.45;-19.07;67.04;0.0;54.193;39.468735;-0.341468;-51.2;NaN;4.01;2.8;299.48;14 / 33;24915;2021-10-20 19:27:08:347
-1.46;-5.1791;-1.235;-8.9926;3.8882;-0.4836;1.5838;-5.2901;-0.8394;0.2406;-4.0069;1.2365;0.0;-22.2;31.91;7.2;13.45;-19.07;67.04;0.0;54.193;39.468735;-0.341468;-51.2;NaN;4.01;2.8;299.48;14 / 33;24964;2021-10-20 19:27:08:396
1.4381;-15.9289;-16.5109;-7.9009;0.3687;-5.7988;0.1614;-0.684;3.8723;-1.3673;-1.1037;0.2933;0.0;-23.34;31.61;6.06;329.58;-2.15;126.28;0.0;63.444;39.468735;-0.341468;-51.2;NaN;4.01;2.8;299.48;14 / 33;25014;2021-10-20 19:27:08:446
1.4381;-15.9289;-16.5109;-8.691;-1.7813;-4.1803;-3.9828;6.2603;14.1879;-1.3673;-1.1037;0.2933;0.0;-23.34;31.61;6.06;329.58;-2.15;126.28;0.0;63.444;39.468735;-0.341468;-51.2;NaN;4.01;2.8;299.48;14 / 33;25065;2021-10-20 19:27:08:497
1.199;-9.828;-4.5979;-8.8538;3.8116;-1.8052;-3.9828;6.2603;14.1879;-1.7003;0.6079;-0.4312;0.0;-23.59;32.1;3.19;329.58;-2.15;126.28;0.0;63.444;39.468735;-0.341468;-51.2;NaN;4.01;2.8;299.48;14 / 33;25115;2021-10-20 19:27:08:547
-5.165;-17.526;5.117;-8.8538;3.8116;-1.8052;3.3995;0.8756;-0.4735;-1.7003;0.6079;-0.4312;0.0;-23.59;32.1;3.19;329.58;-2.15;126.28;0.0;63.444;39.468735;-0.341468;-51.2;NaN;4.01;2.8;299.48;14 / 33;25165;2021-10-20 19:27:08:597
-2.3;-3.564;-1.2731;-8.7484;1.6903;-4.1037;0.6034;-1.2635;1.063;-0.2255;-0.7699;-0.3615;0.0;-23.64;32.81;1.39;338.95;-9.92;115.13;0.0;63.444;39.468735;-0.341468;-51.2;NaN;4.01;2.8;299.48;14 / 33;25214;2021-10-20 19:27:08:646
0.548;-12.183;2.5031;-7.1251;-0.9433;6.675;-2.185;-2.9889;-8.2395;1.2389;-1.9829;0.3502;0.0;-23.21;33.0;-2.64;27.6;5.52;46.87;0.0;63.444;39.468735;-0.341468;-51.2;NaN;4.01;2.8;299.48;14 / 33;25264;2021-10-20 19:27:08:696
0.239;-10.455;-1.744;-9.2225;-3.3279;-0.0862;-2.185;-2.9889;-8.2395;1.2389;-1.9829;0.3502;0.0;-23.21;33.0;-2.64;27.6;5.52;46.87;0.0;63.444;39.468735;-0.341468;-51.2;NaN;4.01;2.8;299.48;14 / 33;25314;2021-10-20 19:27:08:746
1.7921;-8.7889;-0.0709;-9.4379;0.9337;-2.5043;-1.3104;0.7503;0.7512;0.7521;-0.333;-1.074;0.0;-22.31;32.4;-8.64;13.17;19.84;90.54;0.0;58.494;39.468735;-0.341468;-51.2;NaN;4.01;2.8;299.48;14 / 33;25365;2021-10-20 19:27:08:797
1.7921;-8.7889;-0.0709;-9.7205;-1.2929;0.0;-2.3566;-0.9801;-0.6271;0.0217;1.5982;-0.7168;0.0;-21.71;30.9;-14.46;22.6;7.58;90.0;0.0;58.494;39.468735;-0.341468;-51.2;NaN;4.01;2.8;299.48;14 / 33;25415;2021-10-20 19:27:08:847
0.1691;-9.191;0.758;-9.8019;-0.3352;0.0958;-0.4196;-0.8406;-1.4419;0.0217;1.5982;-0.7168;0.0;-21.71;30.9;-14.46;22.6;7.58;90.0;0.0;58.494;39.468735;-0.341468;-51.2;NaN;4.01;2.8;299.48;14 / 33;25465;2021-10-20 19:27:08:897
0.461;-9.8681;0.528;-9.8019;-0.3352;0.0958;-0.4196;-0.8406;-1.4419;0.0752;1.7324;-0.1332;0.0;-19.99;29.7;-18.9;32.05;1.96;89.44;0.0;58.494;39.468735;-0.341468;-51.2;NaN;4.01;2.8;299.48;14 / 33;25514;2021-10-20 19:27:08:946
0.0401;-11.2181;-1.8071;-9.754;0.5746;-0.8428;0.85;0.6151;0.3957;0.1995;1.588;0.0491;0.0;-19.99;29.7;-18.9;32.05;1.96;89.44;0.0;58.494;39.468735;-0.341468;-51.2;NaN;4.01;2.8;299.48;14 / 33;25565;2021-10-20 19:27:08:997
5.096;-12.138;-0.339;-9.4332;-2.5618;-0.7661;-2.9216;1.9335;0.524;0.1995;1.588;0.0491;0.0;-17.51;28.99;-21.71;36.24;-3.36;94.94;0.0;58.494;39.468735;-0.341468;-51.2;NaN;4.01;2.8;299.48;14 / 33;25615;2021-10-20 19:27:09:047
3.099;-13.2461;-2.987;-9.4332;-2.4517;-1.0774;-2.7129;2.8514;0.894;-0.2945;2.3427;-0.4382;0.0;-15.19;28.61;-23.76;34.28;14.48;96.52;0.0;54.188;39.468735;-0.341468;-51.2;NaN;4.01;2.8;299.48;14 / 33;25665;2021-10-20 19:27:09:097
3.099;-13.2461;-2.987;-9.1075;-1.8627;-3.1172;-2.7129;2.8514;0.894;-0.2945;2.3427;-0.4382;0.0;-15.19;28.61;-23.76;34.28;14.48;96.52;0.0;54.188;39.468742;-0.341482;-51.1;NaN;3.85;2.9;292.47;14 / 33;25714;2021-10-20 19:27:09:146
2.489;-10.867;-2.1199;-9.1985;3.395;0.2682;-1.3785;1.1587;1.1449;-0.8429;2.5575;-0.4979;0.0;-14.1;29.76;-23.46;27.29;10.95;108.89;0.0;54.188;39.468742;-0.341482;-51.1;NaN;3.85;2.9;292.47;14 / 33;25765;2021-10-20 19:27:09:197
-8.114;-12.75;0.3821;-9.1985;3.395;0.2682;-1.3785;1.1587;1.1449;-0.1965;0.8572;0.5915;0.0;-16.09;31.91;-18.41;36.81;-20.25;88.33;0.0;54.188;39.468742;-0.341482;-51.1;NaN;3.85;2.9;292.47;14 / 33;25815;2021-10-20 19:27:09:247
1.9961;-11.499;-1.412;-9.3565;1.3599;2.6193;8.2226;6.5372;-3.7999;-0.1965;0.8572;0.5915;0.0;-16.09;31.91;-18.41;36.81;-20.25;88.33;0.0;54.188;39.468742;-0.341482;-51.1;NaN;3.85;2.9;292.47;14 / 33;25864;2021-10-20 19:27:09:296
-0.986;-10.833;-0.5861;-9.3039;-0.5124;-3.0598;-2.6095;1.4985;4.8387;0.4496;-0.6146;0.9191;0.0;-18.84;34.01;-10.44;5.8;2.99;108.2;0.0;54.188;39.468742;-0.341482;-51.1;NaN;3.85;2.9;292.47;14 / 33;25914;2021-10-20 19:27:09:346
-1.271;-3.9349;0.753;-9.0597;2.3559;2.9305;1.0062;-5.0683;-2.2004;0.1645;-1.3641;0.2384;0.0;-18.84;34.01;-10.44;5.8;2.99;108.2;0.0;63.329;39.468742;-0.341482;-51.1;NaN;3.85;2.9;292.47;14 / 33;25965;2021-10-20 19:27:09:397
-1.271;-3.9349;0.753;-9.3709;2.739;-0.9529;1.0062;-5.0683;-2.2004;0.1645;-1.3641;0.2384;0.0;-20.59;34.91;-3.6;19.21;-13.9;72.08;0.0;63.329;39.468742;-0.341482;-51.1;NaN;3.85;2.9;292.47;14 / 33;26015;2021-10-20 19:27:09:447
-1.941;-4.547;0.375;-9.0453;3.7733;0.3591;1.2711;-4.6929;-0.2619;0.0047;-2.518;0.5017;0.0;-22.14;34.86;2.04;351.3;-16.21;95.81;0.0;63.329;39.468742;-0.341482;-51.1;NaN;3.85;2.9;292.47;14 / 33;26065;2021-10-20 19:27:09:497
-1.048;-4.713;-1.122;-9.0453;3.7733;0.3591;-0.0795;-5.0144;0.5573;0.0047;-2.518;0.5017;0.0;-22.14;34.86;2.04;351.3;-16.21;95.81;0.0;63.329;39.468742;-0.341482;-51.1;NaN;3.85;2.9;292.47;14 / 33;26115;2021-10-20 19:27:09:547
0.6311;-12.468;-12.123;-8.0972;0.5076;-5.5115;-2.0207;2.8179;11.0242;-0.525;-2.2635;0.7733;0.0;-23.29;34.61;3.24;335.64;-2.97;124.24;0.0;63.329;39.468742;-0.341482;-51.1;NaN;3.85;2.9;292.47;14 / 33;26164;2021-10-20 19:27:09:596
-0.876;-14.622;-5.727;-7.6806;-0.1389;-6.0956;-2.0207;2.8179;11.0242;-2.212;1.0622;-0.1081;0.0;-23.21;34.69;-0.36;337.92;0.81;128.44;0.0;63.329;39.468742;-0.341482;-51.1;NaN;3.85;2.9;292.47;14 / 33;26214;2021-10-20 19:27:09:646
-6.742;-12.911;3.825;-6.1244;6.4021;-4.209;1.3266;-3.8477;2.9708;-2.212;1.0622;-0.1081;0.0;-23.21;34.69;-0.36;337.92;0.81;128.44;0.0;63.329;39.468742;-0.341482;-51.1;NaN;3.85;2.9;292.47;14 / 33;26264;2021-10-20 19:27:09:696
-6.742;-12.911;3.825;-9.6965;-1.4653;-0.182;2.1796;10.2897;-12.505;-1.242;0.1662;0.1271;0.0;-22.09;35.16;-3.36;323.65;-40.75;124.5;0.0;56.451;39.468742;-0.341482;-51.1;NaN;3.85;2.9;292.47;14 / 33;26315;2021-10-20 19:27:09:747
1.251;-6.6469;-1.68;-5.9089;-4.1659;6.6272;2.1796;10.2897;-12.505;1.1767;-1.6448;-0.2078;0.0;-22.09;35.16;-3.36;323.65;-40.75;124.5;0.0;56.451;39.468742;-0.341482;-51.1;NaN;3.85;2.9;292.47;14 / 33;26364;2021-10-20 19:27:09:796
-2.7881;-10.074;2.7791;-5.9089;-4.1659;6.6272;-4.5472;-4.8718;-7.6278;1.1767;-1.6448;-0.2078;0.0;-20.4;34.86;-7.26;29.15;25.14;41.72;0.0;56.451;39.468742;-0.341482;-51.1;NaN;3.85;2.9;292.47;14 / 33;26414;2021-10-20 19:27:09:846
3.039;-10.493;0.2651;-9.6199;-1.8723;-0.2873;-3.6064;2.205;-1.0509;1.5932;-1.3161;-1.0021;0.0;-19.39;33.6;-13.01;18.53;11.01;91.71;0.0;56.451;39.468742;-0.341482;-51.1;NaN;3.85;2.9;292.47;14 / 33;26465;2021-10-20 19:27:09:897
0.512;-8.4589;0.756;-9.2656;2.1165;-2.4229;-3.6064;2.205;-1.0509;1.5932;-1.3161;-1.0021;0.0;-19.39;33.6;-13.01;18.53;11.01;91.71;0.0;56.451;39.468742;-0.341482;-51.1;NaN;3.85;2.9;292.47;14 / 33;26515;2021-10-20 19:27:09:947
-0.019;-9.6079;-0.244;-9.7252;-1.1444;0.4932;-1.058;-1.2926;-1.6349;0.6182;0.9402;-0.369;0.0;-18.19;31.91;-18.24;25.88;-12.46;104.65;0.0;56.451;39.468742;-0.341482;-51.1;NaN;3.85;2.9;292.47;14 / 33;26565;2021-10-20 19:27:09:997
-0.019;-9.6079;-0.244;-9.8066;-0.1101;0.1676;-0.2427;-0.1697;-0.5502;0.2241;1.8685;-0.3477;0.0;-16.39;30.6;-21.41;25.88;-12.46;104.65;0.0;59.598;39.468742;-0.341482;-51.1;NaN;3.85;2.9;292.47;14 / 33;26615;2021-10-20 19:27:10:047
0.023;-9.947;0.105;-9.7492;-0.5507;-0.8954;-0.0374;0.4125;-0.1641;0.2241;1.8685;-0.3477;0.0;-16.39;30.6;-21.41;25.88;-12.46;104.65;0.0;59.598;39.468742;-0.341482;-51.1;NaN;3.85;2.9;292.47;14 / 33;26664;2021-10-20 19:27:10:096
