sep=;
ACCELEROMETER X (m/s²);ACCELEROMETER Y (m/s²);ACCELEROMETER Z (m/s²);GRAVITY X (m/s²);GRAVITY Y (m/s²);GRAVITY Z (m/s²);LINEAR ACCELERATION X (m/s²);LINEAR ACCELERATION Y (m/s²);LINEAR ACCELERATION Z (m/s²);GYROSCOPE X (rad/s);GYROSCOPE Y (rad/s);GYROSCOPE Z (rad/s);LIGHT (lux);MAGNETIC FIELD X (μT);MAGNETIC FIELD Y (μT);MAGNETIC FIELD Z (μT);ORIENTATION Z (azimuth °);ORIENTATION X (pitch °);ORIENTATION Y (roll °);PROXIMITY (m);SOUND LEVEL (dB);LOCATION Latitude : ;LOCATION Longitude : ;LOCATION Altitude ( m);LOCATION Altitude-google ( m);LOCATION Speed ( Kmh);LOCATION Accuracy ( m);LOCATION ORIENTATION (°);Satellites in range;Time since start in ms ;YYYY-MO-DD HH-MI-SS_SSS
-0.471;2.745;9.457;2.528;0.484;9.462;-0.211;2.496;-2.136;-0.679;-0.454;-0.888;49.0;-16.0;-7.1;-24.2;118.3;-4.5;-17.7;5.0;40.68;39.46892;-0.34092;69.4;NaN;;13.96;;0 / 31;20;2021-10-26 23:10:17:437
-1.972;3.798;6.771;4.539;2.907;8.193;0.742;1.259;2.258;-0.759;-0.446;-0.972;49.0;-12.0;-7.1;-25.4;313.2;-17.2;-29.0;5.0;38.59;39.46892;-0.34092;69.4;NaN;;13.96;;0 / 31;71;2021-10-26 23:10:17:488
-4.983;8.219;10.089;6.091;4.075;6.517;3.006;-1.02;2.473;-0.11;0.544;-0.355;49.0;-8.2;-7.4;-26.1;287.7;-24.6;-43.1;5.0;38.59;39.46892;-0.34092;69.4;NaN;;13.96;;0 / 31;121;2021-10-26 23:10:17:538
1.366;5.761;3.123;8.332;-1.671;4.894;-1.096;-2.747;2.384;0.458;1.374;0.374;49.0;-1.2;-8.3;-26.6;285.2;-35.2;-49.0;5.0;38.59;39.46892;-0.34092;69.4;NaN;;13.96;;0 / 31;171;2021-10-26 23:10:17:588
-5.0;10.819;3.789;8.389;4.017;3.103;3.324;-4.034;4.031;0.947;2.42;1.442;49.0;4.1;-10.4;-25.9;252.8;-9.0;-50.7;5.0;38.59;39.46892;-0.34092;69.4;NaN;;13.96;;0 / 31;220;2021-10-26 23:10:17:637
-3.001;6.158;-0.694;8.782;4.357;-0.244;2.274;-1.517;8.712;1.174;3.188;1.714;49.0;9.6;-12.4;-24.7;250.5;-24.2;-69.7;5.0;38.59;39.46892;-0.34092;69.4;NaN;;13.96;;0 / 31;270;2021-10-26 23:10:17:687
-4.073;1.158;0.112;2.504;9.438;0.934;0.921;3.452;2.058;0.59;3.274;1.414;49.0;16.5;-15.2;-22.4;245.6;-74.2;-69.6;5.0;38.59;39.46892;-0.34092;69.4;NaN;;13.96;;0 / 31;321;2021-10-26 23:10:17:738
-3.59;5.354;2.843;7.724;5.071;3.29;0.391;5.089;2.704;0.391;2.682;-0.02;37.0;21.7;-16.9;-20.0;288.3;-49.1;3.2;5.0;38.59;39.46892;-0.34092;69.4;NaN;;13.96;;0 / 31;371;2021-10-26 23:10:17:788
-9.363;1.776;-1.95;4.108;1.891;-8.701;-0.087;-4.526;28.66;1.161;2.764;-1.119;37.0;23.6;-18.1;-18.2;175.0;-51.8;-135.4;5.0;44.33;39.46892;-0.34092;69.4;NaN;;13.96;;0 / 31;420;2021-10-26 23:10:17:837
1.543;2.838;7.396;2.174;1.097;9.5;-5.744;5.267;-16.12;0.993;2.351;-1.018;37.0;24.9;-19.3;-17.0;149.5;-11.1;-154.7;0.0;44.33;39.46892;-0.34092;69.4;NaN;;13.96;;0 / 31;470;2021-10-26 23:10:17:887
11.185;25.93;6.089;8.744;-3.984;1.973;-16.48;-19.27;-3.613;-1.938;5.054;4.562;37.0;24.5;-21.8;-15.9;238.7;20.6;-71.5;0.0;44.33;39.46892;-0.34092;69.4;NaN;;13.96;;0 / 31;520;2021-10-26 23:10:17:937
-6.963;9.462;-0.351;8.107;5.43;-0.958;-4.295;-6.566;9.433;-1.938;5.054;4.562;37.0;23.6;-23.8;-14.9;186.3;10.9;-118.1;0.0;44.33;39.46892;-0.34092;69.4;NaN;;13.96;;0 / 31;570;2021-10-26 23:10:17:987
-4.023;5.333;5.701;5.928;4.377;6.474;1.202;3.692;-3.665;-0.882;3.722;3.465;37.0;23.7;-24.1;-14.3;216.4;-39.4;-70.9;0.0;44.33;39.46892;-0.34092;69.4;NaN;;13.96;;0 / 31;621;2021-10-26 23:10:18:038
-2.661;8.499;2.745;8.897;2.758;3.079;-0.265;1.947;-1.492;-0.25;2.649;1.838;0.0;24.1;-23.2;-14.2;217.8;-16.3;-70.9;0.0;44.33;39.46892;-0.34092;69.4;NaN;;13.96;;0 / 31;670;2021-10-26 23:10:18:087
-3.559;8.945;-0.698;8.921;4.056;-0.311;0.775;0.16;2.698;-1.198;1.667;-0.619;0.0;24.0;-22.4;-14.7;202.6;-18.5;-96.8;0.0;60.73;39.46892;-0.34092;69.4;NaN;;13.96;;0 / 31;721;2021-10-26 23:10:18:138
-3.949;8.468;2.542;8.701;3.874;2.342;1.397;0.884;-0.448;-0.972;1.494;-0.246;0.0;21.8;-22.1;-16.5;219.1;-26.3;-72.4;0.0;60.73;39.46892;-0.34092;69.4;NaN;;13.96;;0 / 31;770;2021-10-26 23:10:18:187
-2.977;8.861;2.214;9.026;2.792;2.629;-0.021;0.235;-0.112;0.241;0.3;-0.248;0.0;21.0;-22.3;-17.6;217.0;-20.3;-80.3;0.0;60.73;39.46892;-0.34092;69.4;NaN;;13.96;;0 / 31;821;2021-10-26 23:10:18:238
-3.221;9.232;2.704;8.926;3.156;2.567;-0.183;-0.032;-0.98;0.258;0.029;-0.237;0.0;19.1;-21.7;-19.1;223.2;-18.8;-74.0;0.0;60.73;39.46892;-0.34092;69.4;NaN;;13.96;;0 / 31;871;2021-10-26 23:10:18:288
-4.428;10.029;1.835;8.859;3.888;1.618;1.116;-0.96;0.242;-0.081;-0.255;-0.129;0.0;18.4;-21.5;-20.0;223.2;-22.1;-78.7;0.0;60.73;39.46892;-0.34092;69.4;NaN;;13.96;;0 / 31;921;2021-10-26 23:10:18:338
-5.189;10.426;1.95;8.643;4.31;1.695;1.933;-1.209;0.358;-0.081;-0.255;-0.129;0.0;16.8;-21.4;-20.7;223.4;-26.4;-80.9;0.0;60.73;39.46892;-0.34092;69.4;NaN;;13.96;;0 / 31;970;2021-10-26 23:10:18:387
-6.17;9.873;1.606;8.241;5.167;1.259;2.73;-0.854;0.512;-0.081;-0.255;-0.129;4.0;15.8;-21.5;-21.0;224.8;-26.9;-76.1;0.0;43.49;39.46892;-0.34092;69.4;NaN;;13.96;;0 / 31;1021;2021-10-26 23:10:18:438
-0.658;9.229;1.773;9.586;0.455;2.025;-1.485;-0.553;1.078;-0.081;-0.255;-0.129;4.0;13.5;-20.9;-34.5;239.5;-2.7;-78.1;0.0;43.49;39.46892;-0.34092;69.4;NaN;;13.96;;0 / 31;1070;2021-10-26 23:10:18:487
-1.215;10.505;2.36;9.481;1.068;2.274;-3.476;-0.875;-0.937;0.457;-1.183;0.074;4.0;13.4;-21.8;-33.7;238.6;-2.2;-74.7;0.0;43.49;39.46892;-0.34092;69.4;NaN;;13.96;;0 / 31;1121;2021-10-26 23:10:18:538
-2.649;10.692;1.493;9.366;2.677;1.125;-0.857;-1.782;0.172;0.374;-0.977;0.442;4.0;16.3;-21.7;-30.7;233.5;-11.3;-79.7;0.0;43.49;39.46892;-0.34092;69.4;NaN;;13.96;;0 / 31;1171;2021-10-26 23:10:18:588
-1.998;9.028;2.618;9.4;2.064;1.872;-0.394;-0.646;0.509;0.257;-0.741;0.674;4.0;17.6;-25.3;-29.1;232.5;-15.3;-82.1;0.0;43.49;39.46892;-0.34092;69.4;NaN;;13.96;;0 / 31;1221;2021-10-26 23:10:18:638
-3.075;7.958;-2.984;8.705;3.371;-3.002;0.401;1.382;2.855;0.391;-0.7;0.171;4.0;21.6;-26.9;-26.6;207.3;-20.1;-109.0;0.0;43.49;39.46892;-0.34092;69.4;NaN;;13.96;;0 / 31;1271;2021-10-26 23:10:18:688
-2.671;7.815;0.189;9.285;3.156;0.062;-0.05;1.211;1.798;0.933;-0.254;-0.112;5.0;23.3;-27.6;-26.5;209.6;-17.1;-103.4;0.0;43.49;39.46892;-0.34092;69.4;NaN;;13.96;;0 / 31;1321;2021-10-26 23:10:18:738
-1.589;6.352;1.007;9.428;2.217;1.523;-0.745;2.737;0.252;0.731;0.125;-0.107;5.0;25.6;-28.0;-23.9;218.7;-17.2;-83.3;0.0;43.31;39.46892;-0.34092;69.4;NaN;;13.96;;0 / 31;1370;2021-10-26 23:10:18:787
-0.354;4.569;-1.405;9.596;0.742;-1.872;-2.397;4.446;1.281;0.579;0.559;0.108;5.0;28.2;-29.9;-22.8;222.2;-8.9;-80.8;0.0;43.31;39.46892;-0.34092;69.4;NaN;;13.96;;0 / 31;1420;2021-10-26 23:10:18:837
-1.998;5.656;-2.537;8.514;3.179;-3.682;-1.476;4.321;3.04;0.305;0.883;0.311;5.0;30.7;-30.4;-23.5;193.4;-18.9;-113.4;0.0;43.31;39.46892;-0.34092;69.4;NaN;;13.96;;0 / 31;1470;2021-10-26 23:10:18:887
-4.741;8.514;-4.552;7.853;4.305;-3.998;1.899;1.084;4.122;0.305;0.883;0.311;5.0;31.4;-30.1;-22.4;187.2;-24.6;-117.2;0.0;43.31;39.46892;-0.34092;69.4;NaN;;13.96;;0 / 31;1520;2021-10-26 23:10:18:937
-5.208;9.77;-7.453;7.159;3.831;-5.497;2.319;-0.26;6.237;0.305;0.883;0.311;5.0;32.6;-27.3;-19.4;179.3;-23.8;-125.3;0.0;43.31;39.46892;-0.34092;69.4;NaN;;13.96;;0 / 31;1571;2021-10-26 23:10:18:988
-6.505;9.663;-5.869;7.307;4.932;-4.295;2.813;-0.523;5.262;1.941;0.141;-0.645;5.0;33.1;-26.6;-20.0;175.0;-24.2;-126.4;0.0;43.31;39.46892;-0.34092;69.4;NaN;;13.96;;0 / 31;1620;2021-10-26 23:10:19:037
-2.558;11.058;-6.177;8.035;2.634;-4.97;0.916;-0.324;3.385;1.456;0.099;-0.665;3.0;33.5;-26.6;-22.3;184.8;-32.5;-117.1;0.0;41.97;39.46892;-0.34092;69.4;NaN;;13.96;;0 / 31;1671;2021-10-26 23:10:19:088
-2.211;15.024;5.112;8.456;1.173;4.827;-1.362;-6.381;-8.749;0.765;0.488;-0.325;3.0;32.9;-28.1;-25.8;212.6;-9.3;-95.0;0.0;41.97;39.46892;-0.34092;69.4;NaN;;13.96;;0 / 31;1720;2021-10-26 23:10:19:137
-1.831;4.042;1.163;8.734;2.945;3.347;-1.987;3.035;-5.526;-1.505;1.036;0.087;3.0;30.7;-29.6;-28.7;228.1;-17.5;-69.0;0.0;41.97;39.46892;-0.34092;69.4;NaN;;13.96;;0 / 31;1770;2021-10-26 23:10:19:187
-3.027;9.117;2.829;8.897;2.83;3.002;-1.0;5.529;-2.868;-1.977;1.192;0.39;3.0;30.5;-28.7;-30.7;229.6;-16.8;-71.4;0.0;41.97;39.46892;-0.34092;69.4;NaN;;13.96;;0 / 31;1820;2021-10-26 23:10:19:237
-5.088;9.409;1.639;8.562;4.468;1.7;1.809;-0.718;-3.625;-2.313;0.468;-0.198;3.0;29.6;-27.3;-29.9;227.5;-23.8;-74.4;0.0;41.97;39.46892;-0.34092;69.4;NaN;;13.96;;0 / 31;1871;2021-10-26 23:10:19:288
-2.671;8.025;1.735;8.973;3.721;1.355;1.466;1.898;0.166;-0.764;-0.752;-0.671;3.0;30.5;-27.1;-32.0;217.0;-31.4;-91.2;0.0;41.97;39.46892;-0.34092;69.4;NaN;;13.96;;0 / 31;1920;2021-10-26 23:10:19:337
-3.238;8.992;1.177;9.16;3.266;1.269;-0.238;0.406;-1.134;-0.607;-0.627;-0.373;3.0;29.2;-27.0;-32.9;227.6;-19.4;-82.1;0.0;41.97;39.46892;-0.34092;69.4;NaN;;13.96;;0 / 31;1971;2021-10-26 23:10:19:388
-3.767;8.198;1.689;8.744;4.027;1.882;0.34;0.789;-0.798;-0.379;-0.687;-0.365;3.0;28.7;-26.6;-33.6;229.7;-24.2;-77.9;0.0;45.51;39.46892;-0.34092;69.4;NaN;;13.96;;0 / 31;2020;2021-10-26 23:10:19:437
-3.434;8.013;1.816;8.835;3.797;1.93;-0.024;1.091;-1.093;-0.152;-0.644;-0.294;3.0;27.7;-25.9;-34.6;231.8;-23.1;-75.8;0.0;45.51;39.46892;-0.34092;69.4;NaN;;13.96;;0 / 31;2071;2021-10-26 23:10:19:488
-3.121;8.842;1.67;9.122;3.16;1.733;-0.392;0.799;-0.706;-0.124;-0.527;-0.171;3.0;27.0;-25.0;-34.4;231.5;-22.0;-79.0;0.0;45.51;39.46892;-0.34092;69.4;NaN;;13.96;;0 / 31;2120;2021-10-26 23:10:19:537
-3.36;8.978;1.292;9.108;3.385;1.346;-0.25;0.091;-0.258;-0.18;-0.471;-0.118;3.0;25.9;-24.6;-35.0;231.5;-20.3;-81.5;0.0;45.51;39.46892;-0.34092;69.4;NaN;;13.96;;0 / 31;2171;2021-10-26 23:10:19:588
-4.32;9.538;2.513;8.724;3.888;2.231;0.496;-0.491;-1.033;-0.096;-0.42;-0.034;3.0;25.4;-23.3;-35.3;234.9;-22.3;-77.8;0.0;45.51;39.46892;-0.34092;69.4;NaN;;13.96;;0 / 31;2221;2021-10-26 23:10:19:638
-4.827;9.153;2.587;8.418;4.463;2.318;1.206;-0.218;-1.358;-0.103;-0.443;-0.087;3.0;23.8;-21.5;-34.9;236.9;-25.4;-73.3;0.0;45.51;39.46892;-0.34092;69.4;NaN;;13.96;;0 / 31;2271;2021-10-26 23:10:19:688
-4.397;9.581;-0.203;8.892;4.132;0.115;0.883;-0.478;0.98;0.023;-0.573;-0.22;5.0;21.1;-24.2;-36.6;235.8;-26.9;-76.5;0.0;46.17;39.46892;-0.34092;69.4;NaN;;13.96;;0 / 31;2321;2021-10-26 23:10:19:738
-6.879;10.632;1.558;8.547;4.52;1.647;1.553;-2.178;-0.702;0.467;-0.962;-0.593;5.0;19.1;-25.3;-37.3;235.4;-27.4;-79.1;0.0;46.17;39.46892;-0.34092;69.4;NaN;;13.96;;0 / 31;2370;2021-10-26 23:10:19:787
-2.664;8.169;0.622;8.509;4.515;1.848;1.576;0.707;-0.973;0.613;-1.127;-0.77;5.0;18.1;-26.2;-36.8;239.3;-40.7;-73.5;0.0;46.17;39.46892;-0.34092;69.4;NaN;;13.96;;0 / 31;2421;2021-10-26 23:10:19:838
-0.722;9.718;-0.308;9.783;0.704;-0.067;-3.538;0.306;2.049;0.699;-0.844;-0.292;5.0;17.5;-27.4;-35.2;231.0;-3.9;-93.5;0.0;46.17;39.46892;-0.34092;69.4;NaN;;13.96;;0 / 31;2471;2021-10-26 23:10:19:888
-3.159;12.073;3.844;9.294;1.891;2.49;-0.855;-3.327;-2.5;0.227;-0.557;0.235;5.0;17.2;-30.4;-33.6;228.9;-7.6;-85.3;0.0;46.17;39.46892;-0.34092;69.4;NaN;;13.96;;0 / 31;2521;2021-10-26 23:10:19:938
-1.759;9.828;1.024;9.505;2.093;1.197;-1.938;-1.079;0.182;0.227;-0.557;0.235;5.0;18.8;-31.4;-31.2;228.7;-11.1;-75.0;0.0;46.17;39.46892;-0.34092;69.4;NaN;;13.96;;0 / 31;2571;2021-10-26 23:10:19:988
-4.887;7.963;-3.291;7.738;4.899;-3.51;0.558;1.049;2.838;0.227;-0.557;0.235;5.0;19.3;-34.7;-24.0;222.9;-12.3;-82.8;0.0;49.59;39.46892;-0.34092;69.4;NaN;;13.96;;0 / 31;2621;2021-10-26 23:10:20:038
-4.49;6.572;0.974;7.843;5.871;0.469;2.007;2.313;1.136;0.701;-0.471;-0.263;6.0;21.8;-34.6;-21.0;208.9;-36.8;-86.6;0.0;49.59;39.46892;-0.34092;69.4;NaN;;13.96;;0 / 31;2670;2021-10-26 23:10:20:087
-1.103;5.565;0.15;9.376;2.83;0.488;-0.551;3.111;0.234;1.107;-0.704;-0.688;6.0;23.3;-34.0;-19.4;207.4;-16.8;-87.0;0.0;49.59;39.46892;-0.34092;69.4;NaN;;13.96;;0 / 31;2721;2021-10-26 23:10:20:138
0.526;4.157;-1.247;9.414;-1.116;-2.509;-4.206;4.752;1.361;0.917;-0.098;-0.352;6.0;26.0;-32.9;-16.5;202.5;2.5;-98.4;0.0;49.59;39.46892;-0.34092;69.4;NaN;;13.96;;0 / 31;2771;2021-10-26 23:10:20:188
-1.732;5.194;-2.034;8.782;3.136;-3.031;-1.737;3.675;2.155;0.381;0.543;0.013;6.0;27.2;-32.5;-15.2;187.0;5.9;-114.0;0.0;49.59;39.46892;-0.34092;69.4;NaN;;13.96;;0 / 31;2820;2021-10-26 23:10:20:237
-6.261;10.141;-6.204;7.724;4.238;-4.31;1.364;-0.352;3.949;0.93;1.526;0.478;6.0;27.8;-32.5;-14.1;178.1;-25.6;-119.2;0.0;49.59;39.4689;-0.34092;69.9;NaN;;16.029;;0 / 31;2871;2021-10-26 23:10:20:288
-9.564;10.158;-8.356;6.105;5.847;-4.97;4.753;-1.269;7.057;1.851;0.18;-0.563;6.0;27.8;-31.9;-14.7;172.2;-36.6;-129.1;0.0;49.59;39.4689;-0.34092;69.9;NaN;;16.029;;0 / 31;2921;2021-10-26 23:10:20:338
-4.136;10.117;-5.651;8.15;3.084;-4.496;2.542;-0.746;2.676;1.601;-0.255;-0.802;6.0;27.8;-31.7;-15.8;183.6;-39.1;-114.8;0.0;43.92;39.4689;-0.34092;69.9;NaN;;16.029;;0 / 31;2971;2021-10-26 23:10:20:388
-2.35;13.617;-0.157;9.658;1.652;0.45;-1.605;-3.451;2.14;0.697;0.246;-0.401;0.0;27.7;-31.1;-17.7;185.3;-12.2;-115.2;0.0;43.92;39.4689;-0.34092;69.9;NaN;;16.029;;0 / 31;3021;2021-10-26 23:10:20:438
-2.501;5.639;4.016;7.642;1.93;5.837;-2.132;1.117;-8.277;-0.09;0.447;-0.268;0.0;27.6;-30.9;-19.7;221.4;-8.0;-64.5;0.0;43.92;39.4689;-0.34092;69.9;NaN;;16.029;;0 / 31;3070;2021-10-26 23:10:20:487
-2.278;3.542;1.579;7.882;4.812;3.304;-1.409;5.316;-4.124;-1.614;1.168;0.049;0.0;26.8;-30.8;-22.9;222.2;-29.4;-67.3;0.0;43.92;39.4689;-0.34092;69.9;NaN;;16.029;;0 / 31;3120;2021-10-26 23:10:20:537
-4.114;9.581;3.13;8.648;3.816;2.61;0.663;-0.234;-4.288;-1.614;1.168;0.049;0.0;26.5;-30.7;-23.9;222.2;-29.4;-67.3;0.0;43.92;39.4689;-0.34092;69.9;NaN;;16.029;;0 / 31;3170;2021-10-26 23:10:20:587
-3.959;7.743;0.117;8.691;4.544;-0.062;0.943;1.352;0.206;-1.614;1.168;0.049;0.0;25.5;-31.0;-26.8;209.4;-30.5;-97.5;0.0;43.92;39.4689;-0.34092;69.9;NaN;;16.029;;0 / 31;3220;2021-10-26 23:10:20:637
-4.085;8.128;1.732;8.581;4.223;2.179;0.315;1.036;-1.866;-0.327;-1.003;-0.528;0.0;24.8;-31.0;-28.3;223.7;-24.4;-74.7;0.0;51.01;39.4689;-0.34092;69.9;NaN;;16.029;;0 / 31;3271;2021-10-26 23:10:20:688
-4.602;7.776;0.488;8.399;5.009;0.757;0.714;1.378;-0.108;0.192;-1.205;-0.504;0.0;23.3;-30.5;-30.8;220.0;-28.4;-86.1;0.0;51.01;39.4689;-0.34092;69.9;NaN;;16.029;;0 / 31;3320;2021-10-26 23:10:20:737
-3.755;7.508;1.776;8.619;4.209;2.059;-0.19;1.43;-1.125;0.321;-1.281;-0.494;3.0;22.4;-30.5;-32.3;221.7;-30.7;-84.9;0.0;51.01;39.4689;-0.34092;69.9;NaN;;16.029;;0 / 31;3370;2021-10-26 23:10:20:787
-3.556;8.36;1.749;9.002;3.591;1.508;-0.613;0.221;-0.882;0.168;-1.15;-0.364;3.0;21.6;-30.3;-33.8;228.5;-22.3;-78.4;0.0;51.01;39.4689;-0.34092;69.9;NaN;;16.029;;0 / 31;3421;2021-10-26 23:10:20:838
-3.384;9.002;1.172;9.194;3.237;1.092;-0.809;-0.187;-0.272;0.136;-0.985;-0.226;3.0;21.0;-30.5;-35.1;227.9;-20.7;-82.6;0.0;51.01;39.4689;-0.34092;69.9;NaN;;16.029;;0 / 31;3470;2021-10-26 23:10:20:887
-5.385;9.56;2.221;7.91;5.133;2.691;1.467;-0.693;-1.366;-0.045;-0.621;0.139;3.0;18.2;-30.2;-37.9;229.9;-20.6;-82.4;0.0;51.01;39.4689;-0.34092;69.9;NaN;;16.029;;0 / 31;3520;2021-10-26 23:10:20:937
-7.724;8.722;0.569;7.307;6.527;0.436;3.469;0.003;0.614;0.16;-1.038;-0.264;3.0;14.5;-30.9;-40.5;234.3;-38.7;-82.0;0.0;51.01;39.4689;-0.34092;69.9;NaN;;16.029;;0 / 31;3571;2021-10-26 23:10:20:988
-6.656;11.061;2.386;8.284;4.946;1.753;2.485;-1.976;-1.045;0.42;-1.253;-0.503;3.0;12.4;-31.5;-42.3;237.2;-37.5;-79.8;0.0;52.75;39.4689;-0.34092;69.9;NaN;;16.029;;0 / 31;3621;2021-10-26 23:10:21:038
-3.865;9.988;0.832;9.16;3.409;0.804;-1.045;-1.248;0.444;0.42;-1.253;-0.503;3.0;11.4;-32.1;-44.7;235.6;-29.4;-83.4;0.0;52.75;39.4689;-0.34092;69.9;NaN;;16.029;;0 / 31;3671;2021-10-26 23:10:21:088
-1.429;9.069;0.026;9.692;1.489;-0.043;-3.452;-0.052;0.841;0.42;-1.253;-0.503;3.0;12.9;-32.4;-44.8;233.8;-18.1;-86.8;0.0;52.75;39.4689;-0.34092;69.9;NaN;;16.029;;0 / 31;3721;2021-10-26 23:10:21:138
-3.353;11.216;0.193;9.419;2.571;0.905;-1.961;-2.232;0.377;0.305;-0.198;0.652;3.0;17.0;-33.1;-41.6;231.0;-15.2;-84.5;0.0;52.75;39.4689;-0.34092;69.9;NaN;;16.029;;0 / 31;3770;2021-10-26 23:10:21:187
-2.613;9.962;1.211;9.438;2.504;0.929;-1.431;-1.694;-0.618;0.138;0.045;0.82;3.0;20.0;-33.8;-37.8;228.7;-14.2;-79.3;0.0;52.75;39.4689;-0.34092;69.9;NaN;;16.029;;0 / 31;3820;2021-10-26 23:10:21:237
-4.444;8.293;-2.35;7.891;4.779;-3.328;-0.14;0.262;0.912;-0.212;0.474;0.832;3.0;22.6;-34.9;-32.6;227.9;-12.3;-68.5;0.0;52.75;39.4689;-0.34092;69.9;NaN;;16.029;;0 / 31;3870;2021-10-26 23:10:21:287
-3.918;6.527;-1.091;8.236;5.047;-1.69;0.999;1.86;4.073;0.179;0.437;0.223;3.0;23.3;-35.4;-29.7;200.8;-29.7;-115.7;0.0;52.18;39.4689;-0.34092;69.9;NaN;;16.029;;0 / 31;3921;2021-10-26 23:10:21:338
-1.242;5.129;0.485;9.539;2.136;0.824;-1.916;3.529;-0.143;0.328;0.507;-0.079;3.0;24.6;-35.6;-26.1;216.0;-16.4;-81.7;0.0;52.18;39.4689;-0.34092;69.9;NaN;;16.029;;0 / 31;3970;2021-10-26 23:10:21:387
-0.035;3.588;-1.326;9.103;-0.067;-3.654;-3.568;5.33;1.133;0.612;0.745;-0.06;5.0;25.8;-35.5;-23.9;207.4;-5.8;-98.1;0.0;52.18;39.4689;-0.34092;69.9;NaN;;16.029;;0 / 31;4020;2021-10-26 23:10:21:437
-1.768;6.501;-1.019;9.371;2.547;-1.369;-2.872;4.425;1.719;-0.009;1.481;0.563;5.0;26.4;-35.1;-21.8;193.4;-3.5;-115.2;0.0;52.18;39.4689;-0.34092;69.9;NaN;;16.029;;0 / 31;4070;2021-10-26 23:10:21:487
-5.895;11.278;-4.839;7.484;4.851;-4.08;2.194;-1.891;3.991;0.621;1.255;0.35;5.0;26.5;-34.7;-21.2;201.2;-17.6;-99.6;0.0;52.18;39.4689;-0.34092;69.9;NaN;;16.029;;0 / 31;4121;2021-10-26 23:10:21:538
-12.849;7.566;-8.638;4.171;7.116;-5.31;9.101;0.067;9.9;0.621;1.255;0.35;5.0;26.3;-33.8;-21.5;186.8;-29.6;-118.6;0.0;52.18;39.4689;-0.34092;69.9;NaN;;16.029;;0 / 31;4171;2021-10-26 23:10:21:588
-3.698;4.88;-4.255;6.713;5.286;-4.812;0.522;2.94;2.139;0.621;1.255;0.35;5.0;25.7;-32.5;-22.3;189.1;-36.9;-117.6;0.0;52.18;39.4689;-0.34092;69.9;NaN;;16.029;;0 / 31;4220;2021-10-26 23:10:21:637
-5.052;11.238;2.072;8.629;3.888;2.571;-0.11;-0.854;0.424;0.621;1.255;0.35;5.0;24.8;-31.5;-23.3;193.4;-24.6;-115.3;0.0;48.8;39.4689;-0.34092;69.9;NaN;;16.029;;0 / 31;4270;2021-10-26 23:10:21:687
-0.959;13.466;5.392;9.103;0.608;3.596;-0.752;-7.827;-10.698;-1.35;0.191;-0.059;3.0;23.7;-31.4;-24.3;225.4;-16.7;-60.5;0.0;48.8;39.4689;-0.34092;69.9;NaN;;16.029;;0 / 31;4320;2021-10-26 23:10:21:737
-2.936;3.114;0.921;6.579;7.149;1.331;-1.18;5.782;-1.438;-2.4;1.212;0.528;3.0;22.5;-30.9;-25.9;221.6;-46.8;-78.6;0.0;48.8;39.4689;-0.34092;69.9;NaN;;16.029;;0 / 31;4371;2021-10-26 23:10:21:788
-3.09;9.258;3.279;8.768;3.462;2.701;-0.588;-0.404;-3.961;-3.191;1.885;0.927;3.0;21.2;-30.7;-27.1;224.8;-16.6;-70.2;0.0;48.8;39.4689;-0.34092;69.9;NaN;;16.029;;0 / 31;4421;2021-10-26 23:10:21:838
-4.097;7.47;1.165;8.49;4.812;1.01;0.988;1.159;0.041;-1.52;0.088;0.222;3.0;20.3;-30.9;-28.5;216.8;-30.3;-90.8;0.0;48.8;39.4689;-0.34092;69.9;NaN;;16.029;;0 / 31;4471;2021-10-26 23:10:21:888
-4.658;7.602;1.615;8.231;5.08;1.618;0.52;1.361;-1.319;-0.646;-0.935;-0.294;3.0;19.1;-30.8;-29.4;225.9;-24.6;-72.7;0.0;48.8;39.4689;-0.34092;69.9;NaN;;16.029;;0 / 31;4521;2021-10-26 23:10:21:938
-4.217;7.934;1.026;8.629;4.52;1.135;0.577;1.202;-0.078;-0.023;-1.229;-0.449;3.0;17.4;-30.2;-30.5;224.4;-27.4;-82.5;0.0;49.06;39.4689;-0.34092;69.9;NaN;;16.029;;0 / 31;4571;2021-10-26 23:10:21:988
-3.971;8.281;1.517;8.72;4.199;1.595;-0.137;0.571;-0.495;0.254;-1.214;-0.427;3.0;16.1;-30.0;-31.4;226.1;-25.4;-81.2;0.0;49.06;39.4689;-0.34092;69.9;NaN;;16.029;;0 / 31;4621;2021-10-26 23:10:22:038
-4.138;8.145;1.752;8.581;4.348;1.915;-0.156;0.738;-0.876;0.268;-1.179;-0.391;0.0;14.9;-29.3;-31.9;229.7;-25.9;-76.9;0.0;49.06;39.4689;-0.34092;69.9;NaN;;16.029;;0 / 31;4670;2021-10-26 23:10:22:087
-4.507;9.308;0.959;8.792;4.247;0.939;0.173;-0.561;0.219;0.307;-1.08;-0.316;0.0;13.2;-28.5;-32.9;229.0;-26.4;-82.1;0.0;49.06;39.4689;-0.34092;69.9;NaN;;16.029;;0 / 31;4721;2021-10-26 23:10:22:138
-5.507;9.002;2.934;8.097;4.903;2.571;1.18;-0.162;-1.361;0.307;-1.08;-0.316;0.0;11.4;-28.0;-33.3;234.8;-30.0;-72.4;0.0;49.06;39.4689;-0.34092;69.9;NaN;;16.029;;0 / 31;4770;2021-10-26 23:10:22:187
-5.414;8.715;0.873;8.413;4.99;0.709;0.96;-0.105;0.497;0.317;-0.977;-0.293;0.0;9.7;-28.3;-33.8;232.3;-32.2;-83.7;0.0;49.06;39.4689;-0.34092;69.9;NaN;;16.029;;0 / 31;4820;2021-10-26 23:10:22:237
-5.519;11.137;1.548;8.768;4.243;1.154;1.007;-1.827;0.875;0.501;-0.928;-0.339;0.0;7.7;-29.3;-33.9;229.2;-28.4;-90.0;0.0;42.58;39.4689;-0.34092;69.9;NaN;;16.029;;0 / 31;4870;2021-10-26 23:10:22:287
-6.443;7.03;2.398;6.771;6.665;2.437;2.715;1.452;-1.308;0.642;-1.072;-0.543;0.0;6.9;-30.1;-33.6;234.5;-39.6;-82.4;0.0;42.58;39.4689;-0.34092;69.9;NaN;;16.029;;0 / 31;4920;2021-10-26 23:10:22:337
-3.633;10.663;-0.426;9.222;3.328;-0.278;-2.898;-0.58;1.978;0.62;-0.706;-0.194;0.0;8.2;-30.8;-31.4;222.8;-15.1;-94.8;0.0;42.58;39.4689;-0.34092;69.9;NaN;;16.029;;0 / 31;4971;2021-10-26 23:10:22:388
-7.142;14.165;1.797;8.959;3.764;1.336;3.046;-5.339;-0.324;0.446;-0.482;0.003;0.0;11.0;-30.8;-29.0;223.1;-28.0;-86.5;0.0;42.58;39.4689;-0.34092;69.9;NaN;;16.029;;0 / 31;5029;2021-10-26 23:10:22:446
-0.016;9.483;4.576;9.467;-0.215;2.552;-3.274;-2.633;-0.655;0.136;-0.021;0.497;0.0;15.0;-30.1;-26.0;222.1;-6.3;-81.2;0.0;42.58;39.4689;-0.34092;69.9;NaN;;16.029;;0 / 31;5071;2021-10-26 23:10:22:488
-3.69;7.659;-2.889;8.557;3.721;-3.021;-0.78;0.978;4.1;0.001;0.761;0.762;0.0;17.3;-29.8;-24.2;215.7;-7.2;-96.4;0.0;42.58;39.4689;-0.34092;69.9;NaN;;16.029;;0 / 31;5121;2021-10-26 23:10:22:538
-4.344;6.031;2.46;7.657;5.133;3.357;0.773;2.379;-0.837;-0.119;0.867;0.438;0.0;18.7;-29.3;-22.7;203.5;-22.3;-109.4;0.0;42.58;39.4689;-0.34092;69.9;NaN;;16.029;;0 / 31;5171;2021-10-26 23:10:22:588
0.081;4.983;-0.074;9.802;0.158;0.211;-3.431;3.765;0.308;-0.119;0.867;0.438;0.0;20.3;-28.1;-20.4;217.5;-13.3;-78.2;0.0;49.47;39.4689;-0.34092;69.9;NaN;;16.029;;0 / 31;5220;2021-10-26 23:10:22:637
1.333;3.868;-2.697;7.791;-2.533;-5.392;-5.045;5.26;2.658;-0.068;1.266;0.214;0.0;22.0;-26.9;-18.7;213.2;8.1;-99.3;0.0;49.47;39.4689;-0.34092;69.9;NaN;;16.029;;0 / 31;5271;2021-10-26 23:10:22:688
-3.006;7.961;-1.658;8.959;3.462;-1.982;-0.532;1.569;1.668;-0.068;1.266;0.214;0.0;22.5;-26.3;-18.6;190.8;-1.7;-117.6;0.0;49.47;39.4689;-0.34092;69.9;NaN;;16.029;;0 / 31;5321;2021-10-26 23:10:22:738
-8.961;9.466;-8.617;5.669;5.933;-5.368;5.014;-0.284;7.61;1.545;1.35;0.07;0.0;22.6;-26.0;-18.7;177.0;-37.2;-133.4;0.0;49.47;39.4689;-0.34092;69.9;NaN;;16.029;;0 / 31;5370;2021-10-26 23:10:22:787
-12.312;9.071;-7.212;5.08;7.288;-4.156;8.27;0.614;6.016;2.051;-0.09;-1.248;0.0;22.5;-26.0;-19.6;179.7;-49.3;-131.5;0.0;49.47;39.4689;-0.34092;69.9;NaN;;16.029;;0 / 31;5421;2021-10-26 23:10:22:838
-3.748;9.007;-5.629;7.925;3.199;-4.808;0.156;0.168;3.69;1.726;-0.141;-1.147;0.0;21.8;-25.1;-20.9;188.7;-27.8;-123.2;0.0;49.47;39.4689;-0.34092;69.9;NaN;;16.029;;0 / 31;5471;2021-10-26 23:10:22:888
-3.604;13.528;7.044;8.447;2.04;4.554;-0.721;-5.033;-9.398;0.379;-0.116;-0.621;0.0;20.9;-24.2;-22.7;208.8;-16.8;-101.3;0.0;47.64;39.4689;-0.34092;69.9;NaN;;16.029;;0 / 31;5520;2021-10-26 23:10:22:937
-2.802;5.026;2.194;8.188;3.989;3.639;-3.386;0.487;-6.327;-1.408;0.555;0.153;0.0;20.2;-23.4;-24.3;232.2;-3.8;-59.4;0.0;47.64;39.4689;-0.34092;69.9;NaN;;16.029;;0 / 31;5570;2021-10-26 23:10:22:987
-2.35;6.754;2.278;8.753;3.347;2.892;-1.423;3.559;-3.613;-2.818;1.18;0.729;0.0;19.1;-22.1;-26.3;235.4;-37.5;-66.4;0.0;47.64;39.4689;-0.34092;69.9;NaN;;16.029;;0 / 31;5621;2021-10-26 23:10:23:038
-5.914;9.347;1.412;8.174;5.339;0.905;1.213;-0.493;-3.638;-3.117;1.07;0.663;0.0;18.7;-21.3;-27.2;232.8;-26.2;-72.4;0.0;47.64;39.4689;-0.34092;69.9;NaN;;16.029;;0 / 31;5670;2021-10-26 23:10:23:087
-3.071;7.91;1.642;8.878;3.802;1.705;-0.593;1.272;-1.289;-0.954;-0.879;-0.522;0.0;18.4;-21.0;-27.5;218.2;-36.4;-98.4;0.0;47.64;39.4689;-0.34092;69.9;NaN;;16.029;;0 / 31;5720;2021-10-26 23:10:23:137
-3.839;8.657;1.888;8.801;3.85;1.973;-0.343;0.289;-1.661;-0.954;-0.879;-0.522;0.0;18.2;-21.0;-27.5;231.0;-22.8;-79.1;0.0;47.64;39.4689;-0.34092;69.9;NaN;;16.029;;0 / 31;5771;2021-10-26 23:10:23:188
-4.016;8.021;1.539;8.633;4.3;1.781;-0.13;0.856;-0.641;-0.19;-0.495;-0.202;0.0;17.9;-20.7;-28.0;230.9;-26.2;-80.9;0.0;58.51;39.4689;-0.34092;69.9;NaN;;16.029;;0 / 31;5820;2021-10-26 23:10:23:237
-4.062;8.2;1.586;8.72;4.286;1.341;-0.032;0.639;-0.983;-0.361;-0.352;-0.044;0.0;17.3;-20.6;-27.9;233.9;-26.3;-75.0;0.0;58.51;39.4689;-0.34092;69.9;NaN;;16.029;;0 / 31;5871;2021-10-26 23:10:23:288
-4.389;7.271;1.335;8.313;4.98;1.528;0.156;1.495;-0.143;-0.221;-0.343;-0.058;0.0;17.0;-20.6;-27.8;230.5;-25.5;-82.7;0.0;58.51;39.4689;-0.34092;69.9;NaN;;16.029;;0 / 31;5921;2021-10-26 23:10:23:338
-5.057;7.688;1.371;8.131;5.282;1.451;0.667;1.342;-0.049;-0.221;-0.343;-0.058;0.0;17.0;-20.6;-27.2;230.9;-30.5;-79.6;0.0;58.51;39.4689;-0.34092;69.9;NaN;;16.029;;0 / 31;5970;2021-10-26 23:10:23:387
-4.892;9.423;1.474;8.6;4.506;1.374;0.821;-0.062;-0.422;0.119;-0.5;-0.339;0.0;17.0;-21.6;-26.3;228.2;-27.4;-80.9;0.0;58.51;39.4689;-0.34092;69.9;NaN;;16.029;;0 / 31;6021;2021-10-26 23:10:23:438
-5.78;9.438;1.802;8.14;5.291;1.384;0.904;-0.824;-0.486;0.177;-0.468;-0.368;0.0;17.0;-22.8;-25.1;226.4;-27.2;-80.3;0.0;58.51;39.4689;-0.34092;69.9;NaN;;16.029;;0 / 31;6070;2021-10-26 23:10:23:487
-6.984;9.725;1.292;7.982;5.473;1.59;2.437;-1.36;-0.159;0.31;-0.466;-0.415;0.0;16.0;-25.7;-20.9;220.8;-34.7;-83.5;0.0;58.51;39.4689;-0.34092;69.9;NaN;;16.029;;0 / 31;6120;2021-10-26 23:10:23:537
-6.134;8.308;1.35;7.853;5.775;1.077;0.18;-1.296;0.837;0.34;-0.47;-0.318;0.0;12.1;-29.0;-15.5;209.4;-36.1;-82.2;0.0;64.31;39.4689;-0.34092;69.9;NaN;;16.029;;0 / 31;6171;2021-10-26 23:10:23:588
-0.993;8.325;-0.993;9.625;1.36;-1.283;-3.752;0.273;2.037;0.72;-0.771;-0.162;0.0;7.3;-31.2;-12.4;200.5;-11.6;-90.8;0.0;64.31;39.4689;-0.34092;69.9;NaN;;16.029;;0 / 31;6221;2021-10-26 23:10:23:638
-5.713;11.946;1.598;8.643;4.621;0.354;0.358;-3.111;0.385;0.72;-0.771;-0.162;0.0;-0.1;-34.7;-12.1;200.4;-21.0;-89.0;0.0;64.31;39.4689;-0.34092;69.9;NaN;;16.029;;0 / 31;6271;2021-10-26 23:10:23:688
-2.092;9.201;1.637;9.448;2.126;1.551;-1.752;-1.317;-1.26;0.72;-0.771;-0.162;0.0;-2.9;-36.5;-14.6;201.7;-26.7;-72.0;0.0;64.31;39.4689;-0.34092;69.9;NaN;;16.029;;0 / 31;6321;2021-10-26 23:10:23:738
-4.715;6.996;-1.108;7.882;5.583;-1.7;-1.323;1.625;0.041;0.72;-0.771;-0.162;0.0;-3.2;-38.4;-18.0;203.7;-12.5;-80.7;0.0;64.31;39.4689;-0.34092;69.9;NaN;;16.029;;0 / 31;6371;2021-10-26 23:10:23:788
-6.185;7.532;-1.196;7.57;6.187;-0.766;1.927;1.268;1.855;1.49;-3.191;-0.069;0.0;1.0;-39.8;-22.1;207.9;-37.6;-112.9;0.0;64.31;39.4689;-0.34092;69.9;NaN;;16.029;;0 / 31;6421;2021-10-26 23:10:23:838
-2.75;6.558;1.855;9.515;1.657;1.695;-2.29;2.208;-0.791;1.347;-1.633;-0.445;0.0;7.5;-39.2;-23.7;214.9;-30.5;-73.9;0.0;64.39;39.4689;-0.34092;69.9;NaN;;16.029;;0 / 31;6471;2021-10-26 23:10:23:888
-0.134;5.972;1.778;9.543;-0.043;2.255;-4.398;2.793;-0.971;0.597;-0.491;-0.305;0.0;11.7;-38.3;-24.5;213.4;-7.9;-74.8;0.0;64.39;39.4689;-0.34092;69.9;NaN;;16.029;;0 / 31;6521;2021-10-26 23:10:23:938
-1.582;5.548;-3.008;8.523;1.427;-4.63;-2.345;3.212;3.631;-0.541;0.838;0.69;0.0;17.2;-36.6;-24.5;197.8;-8.4;-118.5;0.0;64.39;39.4689;-0.34092;69.9;NaN;;16.029;;0 / 31;6571;2021-10-26 23:10:23:988
-4.564;8.308;-3.078;7.853;4.726;-3.486;0.525;0.763;3.214;-0.211;2.88;0.79;0.0;19.1;-35.5;-24.9;202.8;-26.0;-107.2;0.0;64.39;39.4689;-0.34092;69.9;NaN;;16.029;;0 / 31;6621;2021-10-26 23:10:24:038
-7.338;7.453;-4.818;6.345;6.263;-4.089;2.878;1.468;4.317;0.679;2.232;-0.205;0.0;21.1;-34.4;-25.4;193.4;-36.8;-120.2;0.0;64.39;39.4689;-0.34092;69.9;NaN;;16.029;;0 / 31;6671;2021-10-26 23:10:24:088
-9.596;9.16;-4.459;6.44;6.737;-3.055;5.2;-0.565;3.423;1.042;1.165;-1.178;0.0;22.1;-33.8;-26.5;192.4;-39.8;-122.1;0.0;64.39;39.4689;-0.34092;69.9;NaN;;16.029;;0 / 31;6721;2021-10-26 23:10:24:138
-8.128;13.641;-4.349;7.987;4.831;-3.007;3.728;-2.863;4.381;0.847;0.921;-1.197;0.0;23.4;-33.3;-28.1;202.3;-29.5;-110.6;0.0;64.39;39.4689;-0.34092;69.9;NaN;;16.029;;0 / 31;6770;2021-10-26 23:10:24:187
-0.902;7.341;3.063;9.093;1.111;3.496;-3.792;-0.629;-4.817;0.847;0.921;-1.197;0.0;24.2;-32.9;-29.3;224.5;-8.8;-74.7;0.0;61.14;39.4689;-0.34092;69.9;NaN;;16.029;;0 / 31;6821;2021-10-26 23:10:24:238
-1.661;3.552;3.322;6.752;3.213;6.349;-3.216;4.36;-5.24;-0.775;0.885;-0.251;0.0;24.5;-32.0;-31.3;232.4;-17.1;-50.0;0.0;61.14;39.4689;-0.34092;69.9;NaN;;16.029;;0 / 31;6870;2021-10-26 23:10:24:287
-2.944;9.371;4.72;8.471;2.825;4.051;-2.313;-0.013;-5.963;-0.775;0.885;-0.251;0.0;25.1;-31.7;-32.3;232.7;-11.8;-49.3;0.0;61.14;39.4689;-0.34092;69.9;NaN;;16.029;;0 / 31;6921;2021-10-26 23:10:24:338
-6.328;9.124;-1.302;7.446;5.861;-2.528;2.062;-0.573;-0.62;-2.175;0.797;0.233;0.0;25.4;-31.8;-32.8;206.7;-36.7;-108.8;0.0;61.14;39.4689;-0.34092;69.9;NaN;;16.029;;0 / 31;6971;2021-10-26 23:10:24:388
-4.765;7.152;0.938;8.112;5.435;0.943;1.788;1.817;1.483;-0.792;-0.057;-0.349;0.0;25.5;-31.7;-33.2;219.7;-35.8;-88.3;0.0;61.14;39.4689;-0.34092;69.9;NaN;;16.029;;0 / 31;7020;2021-10-26 23:10:24:437
-4.31;7.824;0.665;8.581;4.678;0.833;0.225;1.106;0.146;-0.792;-0.057;-0.349;0.0;24.4;-31.2;-34.6;222.3;-29.1;-86.3;0.0;61.14;39.4689;-0.34092;69.9;NaN;;16.029;;0 / 31;7071;2021-10-26 23:10:24:488
-3.279;8.092;1.656;8.959;3.558;1.81;-0.399;0.728;-1.288;0.304;-0.224;-0.494;0.0;24.2;-30.7;-35.7;227.4;-26.3;-79.8;0.0;59.1;39.4689;-0.34092;69.9;NaN;;16.029;;0 / 31;7120;2021-10-26 23:10:24:537
-3.623;8.581;2.171;8.835;3.644;2.203;-1.226;0.246;-1.277;-0.282;0.04;-0.099;0.0;23.5;-29.6;-36.4;230.8;-21.8;-76.0;0.0;59.1;39.4689;-0.34092;69.9;NaN;;16.029;;0 / 31;7171;2021-10-26 23:10:24:588
-4.576;8.114;1.752;8.418;4.717;1.757;-0.029;0.375;-1.236;-0.555;0.215;0.2;0.0;23.5;-29.0;-36.5;231.2;-28.7;-78.2;0.0;59.1;39.4689;-0.34092;69.9;NaN;;16.029;;0 / 31;7221;2021-10-26 23:10:24:638
-5.189;8.104;0.902;8.155;5.353;0.996;0.756;0.727;0.16;-0.463;0.053;0.13;0.0;22.3;-28.3;-36.9;229.4;-31.2;-82.3;0.0;59.1;39.4689;-0.34092;69.9;NaN;;16.029;;0 / 31;7270;2021-10-26 23:10:24:687
-5.5;8.155;2.496;8.217;4.827;2.318;1.401;0.83;-0.771;-0.133;-0.352;-0.3;0.0;20.9;-28.4;-37.4;232.9;-34.7;-77.8;0.0;59.1;39.4689;-0.34092;69.9;NaN;;16.029;;0 / 31;7321;2021-10-26 23:10:24:738
-4.5;8.964;1.309;8.25;5.109;1.417;-0.056;-0.485;-0.093;0.053;-0.529;-0.423;0.0;18.2;-28.5;-38.3;232.9;-31.4;-80.3;0.0;59.1;39.4689;-0.34092;69.9;NaN;;16.029;;0 / 31;7371;2021-10-26 23:10:24:788
-6.23;8.81;0.734;7.982;5.66;0.656;1.775;-0.296;0.149;0.276;-0.726;-0.504;0.0;17.0;-29.1;-38.6;233.7;-36.0;-81.9;0.0;59.1;39.4689;-0.34092;69.9;NaN;;16.029;;0 / 31;7421;2021-10-26 23:10:24:838
-6.584;10.369;1.625;8.241;5.2;1.087;1.54;-1.918;-1.531;0.307;-0.751;-0.423;0.0;16.1;-29.3;-38.2;234.7;-30.8;-77.6;0.0;60.62;39.4689;-0.34092;69.9;NaN;;16.029;;0 / 31;7470;2021-10-26 23:10:24:887
-6.472;9.045;1.534;7.93;5.607;1.374;1.894;-1.611;0.702;0.474;-0.696;-0.402;0.0;15.8;-29.4;-37.9;230.8;-33.0;-86.4;0.0;60.62;39.4689;-0.34092;69.9;NaN;;16.029;;0 / 31;7521;2021-10-26 23:10:24:938
-1.706;7.085;-0.584;9.534;2.174;-0.752;-3.148;0.416;1.943;0.461;-0.672;-0.376;0.0;16.1;-29.8;-36.3;225.6;-14.0;-95.1;0.0;60.62;39.4689;-0.34092;69.9;NaN;;16.029;;0 / 31;7570;2021-10-26 23:10:24:987
-6.106;11.022;2.405;8.485;4.879;0.613;1.074;-2.493;-0.993;0.339;-0.001;0.272;0.0;16.6;-30.2;-35.3;225.6;-14.0;-95.1;0.0;60.62;39.4689;-0.34092;69.9;NaN;;16.029;;0 / 31;7621;2021-10-26 23:10:25:038
-4.535;11.633;3.094;8.973;3.179;2.361;0.519;-3.185;-2.179;0.339;-0.001;0.272;0.0;21.3;-31.2;-28.8;224.9;-18.9;-75.3;0.0;60.62;39.4689;-0.34092;69.9;NaN;;16.029;;0 / 31;7670;2021-10-26 23:10:25:087
-0.885;9.507;-0.064;9.438;0.364;2.643;-3.817;-2.125;-0.928;-0.41;0.585;0.916;0.0;23.8;-31.5;-25.8;224.0;-2.1;-74.4;0.0;60.62;39.4689;-0.34092;69.9;NaN;;16.029;;0 / 31;7720;2021-10-26 23:10:25:137
-4.322;7.008;-3.65;8.011;5.152;-2.337;-0.076;1.539;5.477;-0.265;1.036;0.689;0.0;26.6;-31.1;-22.1;191.8;-20.3;-117.3;0.0;48.01;39.4689;-0.34092;69.9;NaN;;16.029;;0 / 31;7771;2021-10-26 23:10:25:188
-4.009;5.759;2.175;7.412;5.77;2.83;0.584;2.748;0.032;-0.065;1.38;0.429;0.0;27.7;-30.5;-20.2;209.2;-34.5;-86.8;0.0;48.01;39.4689;-0.34092;69.9;NaN;;16.029;;0 / 31;7820;2021-10-26 23:10:25:237
-0.335;4.593;-0.45;9.706;0.464;-1.331;-3.544;4.312;0.866;0.121;1.034;-0.088;0.0;30.0;-29.7;-17.0;208.8;-10.3;-86.0;0.0;48.01;39.4689;-0.34092;69.9;NaN;;16.029;;0 / 31;7870;2021-10-26 23:10:25:287
-1.634;5.917;-1.752;9.112;2.217;-2.863;-3.047;3.427;2.284;0.052;1.06;-0.19;0.0;31.4;-29.1;-15.2;186.1;-6.0;-110.1;0.0;48.01;39.4689;-0.34092;69.9;NaN;;16.029;;0 / 31;7921;2021-10-26 23:10:25:338
-3.808;8.7;-2.57;8.619;3.903;-2.586;-0.46;0.555;2.833;-0.361;1.827;0.284;0.0;32.0;-28.4;-14.0;188.5;-21.8;-104.1;0.0;48.01;39.4689;-0.34092;69.9;NaN;;16.029;;0 / 31;7971;2021-10-26 23:10:25:388
-6.194;7.343;-6.316;6.23;5.219;-5.488;1.899;1.395;5.218;1.014;1.371;0.114;0.0;32.0;-28.4;-13.8;178.6;-28.8;-115.3;0.0;48.01;39.4689;-0.34092;69.9;NaN;;16.029;;0 / 31;8021;2021-10-26 23:10:25:438
-9.356;10.503;-5.878;6.675;6.153;-3.716;3.716;-0.662;4.913;1.709;0.465;-0.545;0.0;31.7;-28.3;-14.2;167.1;-31.6;-129.4;0.0;49.18;39.4689;-0.34092;69.9;NaN;;16.029;;0 / 31;8070;2021-10-26 23:10:25:487
-6.867;8.964;-7.798;5.665;5.665;-5.665;3.7;0.29;6.038;1.671;0.191;-0.693;0.0;31.1;-28.4;-15.0;168.8;-47.0;-130.3;0.0;49.18;39.4689;-0.34092;69.9;NaN;;16.029;;0 / 31;8121;2021-10-26 23:10:25:538
-3.384;13.641;6.745;8.964;2.887;2.739;-0.118;-4.392;-4.321;1.671;0.191;-0.693;0.0;30.7;-28.4;-16.0;192.5;-22.3;-103.1;0.0;49.18;39.4689;-0.34092;69.9;NaN;;16.029;;0 / 31;8170;2021-10-26 23:10:25:587
0.488;6.831;4.808;8.265;2.782;4.487;-4.32;2.589;-6.005;-0.978;0.593;-0.182;0.0;29.6;-29.0;-18.5;225.1;-6.8;-59.2;0.0;49.18;39.4689;-0.34092;69.9;NaN;;16.029;;0 / 31;8221;2021-10-26 23:10:25:638
-3.102;4.119;1.405;8.432;4.276;2.61;-1.358;4.768;-3.072;-2.679;1.819;0.599;0.0;28.9;-29.2;-20.4;223.2;-16.5;-61.5;0.0;49.18;39.4689;-0.34092;69.9;NaN;;16.029;;0 / 31;8271;2021-10-26 23:10:25:688
-5.462;9.627;1.417;8.48;4.769;1.25;0.972;-1.058;-2.663;-3.705;2.732;1.165;0.0;28.0;-29.6;-22.6;215.2;-29.1;-81.6;0.0;49.18;39.4689;-0.34092;69.9;NaN;;16.029;;0 / 31;8321;2021-10-26 23:10:25:738
-3.14;7.535;1.862;8.485;4.803;1.087;0.563;1.969;-0.503;-0.942;-0.55;-0.49;0.0;27.9;-29.6;-23.2;211.0;-30.6;-88.1;0.0;49.18;39.4689;-0.34092;69.9;NaN;;16.029;;0 / 31;8370;2021-10-26 23:10:25:787
-3.896;8.581;1.764;8.777;4.046;1.676;-0.177;0.413;-1.488;-0.44;-0.68;-0.237;0.0;26.8;-29.6;-24.4;221.9;-17.8;-73.2;0.0;44.0;39.4689;-0.34092;69.9;NaN;;16.029;;0 / 31;8421;2021-10-26 23:10:25:838
-4.44;7.712;0.99;8.452;4.836;1.178;0.408;1.052;-0.339;-0.178;-0.812;-0.234;0.0;25.8;-29.7;-25.5;217.2;-26.8;-82.8;0.0;44.0;39.4689;-0.34092;69.9;NaN;;16.029;;0 / 31;8470;2021-10-26 23:10:25:887
-4.32;7.726;2.338;8.298;4.635;2.418;0.146;1.053;-1.628;-0.078;-0.878;-0.207;0.0;24.4;-29.9;-28.0;225.0;-28.2;-73.8;0.0;44.0;39.4689;-0.34092;69.9;NaN;;16.029;;0 / 31;8520;2021-10-26 23:10:25:937
-4.543;7.858;1.687;8.38;4.774;1.796;0.205;0.999;-0.586;0.053;-1.001;-0.234;0.0;23.4;-30.2;-29.0;224.0;-28.5;-78.2;0.0;44.0;39.4689;-0.34092;69.9;NaN;;16.029;;0 / 31;8570;2021-10-26 23:10:25:987
-4.258;8.621;1.026;8.739;4.357;0.895;0.114;0.763;-0.022;0.212;-1.183;-0.344;0.0;22.4;-30.1;-30.1;223.2;-28.0;-81.7;0.0;44.0;39.4689;-0.34092;69.9;NaN;;16.029;;0 / 31;8620;2021-10-26 23:10:26:037
-4.409;8.21;2.489;8.557;4.243;2.227;-0.448;0.42;-0.656;0.212;-1.183;-0.344;0.0;21.2;-30.0;-30.9;223.5;-25.4;-81.9;0.0;44.0;39.4689;-0.34092;69.9;NaN;;16.029;;0 / 31;8671;2021-10-26 23:10:26:088
-5.421;8.866;2.68;8.14;5.057;2.083;1.096;-0.191;-0.823;0.212;-1.183;-0.344;0.0;19.3;-30.4;-31.8;230.2;-30.4;-72.5;0.0;36.66;39.4689;-0.34092;69.9;NaN;;16.029;;0 / 31;8720;2021-10-26 23:10:26:137
-4.854;9.517;2.19;8.471;4.621;1.748;0.738;-0.276;-0.264;0.423;-1.266;-0.385;0.0;17.9;-30.9;-32.3;226.9;-32.2;-79.4;0.0;36.66;39.4689;-0.34092;69.9;NaN;;16.029;;0 / 31;8770;2021-10-26 23:10:26:187
-6.532;12.279;0.825;8.461;4.65;1.724;1.15;-2.567;-1.419;0.41;-1.258;-0.366;0.0;15.8;-31.7;-32.9;227.7;-25.6;-76.7;0.0;36.66;39.4689;-0.34092;69.9;NaN;;16.029;;0 / 31;8821;2021-10-26 23:10:26:238
-2.621;9.232;0.146;9.098;3.658;-0.115;0.002;-1.371;1.983;0.74;-0.963;-0.151;0.0;15.1;-32.5;-32.9;224.2;-27.7;-87.5;0.0;36.66;39.4689;-0.34092;69.9;NaN;;16.029;;0 / 31;8871;2021-10-26 23:10:26:288
0.77;9.117;0.885;9.725;-0.828;0.958;-5.066;-0.101;0.365;0.407;-0.18;0.696;0.0;14.0;-33.6;-32.7;225.6;1.5;-83.0;0.0;36.66;39.4689;-0.34092;69.9;NaN;;16.029;;0 / 31;8921;2021-10-26 23:10:26:338
1.73;11.458;1.318;9.644;-1.408;1.092;-5.639;-2.434;0.046;0.28;0.492;1.393;0.0;14.2;-35.0;-31.3;224.5;9.2;-84.2;0.0;36.66;39.4689;-0.34092;69.9;NaN;;16.029;;0 / 31;8971;2021-10-26 23:10:26:388
-0.933;11.477;1.67;9.658;0.828;1.489;-1.988;-2.325;-0.542;-0.112;1.142;1.94;0.0;15.2;-36.8;-28.9;221.0;-2.3;-82.9;0.0;36.66;39.4689;-0.34092;69.9;NaN;;16.029;;0 / 31;9021;2021-10-26 23:10:26:438
-3.784;6.924;-0.514;9.021;3.764;-0.795;0.402;1.11;1.338;-0.139;0.959;1.5;0.0;16.4;-38.3;-26.6;211.2;-22.6;-95.0;0.0;42.05;39.4689;-0.34092;69.9;NaN;;16.029;;0 / 31;9071;2021-10-26 23:10:26:488
-3.848;6.522;-0.658;8.461;4.879;-0.91;1.891;2.974;1.16;0.246;-0.424;-0.061;0.0;16.4;-39.2;-25.4;211.6;-31.9;-88.7;0.0;42.05;39.4689;-0.34092;69.9;NaN;;16.029;;0 / 31;9121;2021-10-26 23:10:26:538
0.9;7.116;0.557;9.759;-0.211;0.929;-2.026;2.748;0.374;0.486;-0.843;-0.435;0.0;16.3;-39.9;-24.4;209.2;-15.5;-93.1;0.0;42.05;39.4689;-0.34092;69.9;NaN;;16.029;;0 / 31;9171;2021-10-26 23:10:26:588
0.306;6.606;-0.682;9.759;-0.441;-0.857;-2.622;2.88;1.275;0.486;-0.843;-0.435;0.0;15.5;-40.9;-24.0;211.2;7.5;-92.4;0.0;42.05;39.4689;-0.34092;69.9;NaN;;16.029;;0 / 31;9220;2021-10-26 23:10:26:637
-3.41;8.475;1.828;8.59;4.276;2.03;-1.385;1.273;-0.767;0.068;0.958;0.717;0.0;13.6;-41.6;-24.2;212.7;-25.8;-76.7;0.0;42.05;39.4689;-0.34092;69.9;NaN;;16.029;;0 / 31;9270;2021-10-26 23:10:26:687
-13.734;7.745;-1.79;5.21;8.207;1.307;10.308;1.617;-1.425;-0.47;0.371;0.157;4.0;11.3;-42.2;-24.8;226.5;-50.3;-63.6;0.0;42.05;39.4689;-0.34092;69.9;NaN;;16.029;;0 / 31;9321;2021-10-26 23:10:26:738
-13.215;5.361;-5.517;4.238;8.294;-3.074;13.865;3.356;8.856;2.523;-3.217;-2.296;4.0;8.0;-43.0;-25.4;190.2;-54.2;-142.1;0.0;47.88;39.4689;-0.34092;69.9;NaN;;16.029;;0 / 31;9371;2021-10-26 23:10:26:788
-3.6;8.279;2.513;8.744;3.572;2.643;-0.214;1.162;-2.992;2.769;-3.0;-2.384;4.0;6.0;-43.5;-25.7;213.9;-48.9;-99.1;0.0;47.88;39.4689;-0.34092;69.9;NaN;;16.029;;0 / 31;9421;2021-10-26 23:10:26:838
-0.89;10.23;0.071;9.778;0.733;-0.172;-2.693;-2.271;-2.62;2.01;-2.201;-1.453;4.0;3.8;-44.0;-25.7;211.1;-9.3;-83.9;0.0;47.88;39.4689;-0.34092;69.9;NaN;;16.029;;0 / 31;9471;2021-10-26 23:10:26:888
-0.526;9.442;2.534;9.337;0.685;2.916;-4.826;-0.302;-1.995;-0.29;-0.984;0.871;4.0;2.6;-44.1;-25.6;210.6;-1.2;-89.2;0.0;47.88;39.4689;-0.34092;69.9;NaN;;16.029;;0 / 31;9521;2021-10-26 23:10:26:938
-4.05;12.2;6.292;8.418;2.768;4.204;-0.422;-3.128;-6.709;-1.278;-0.658;1.456;4.0;1.3;-43.4;-26.5;211.6;-17.2;-62.1;0.0;47.88;39.4689;-0.34092;69.9;NaN;;16.029;;0 / 31;9571;2021-10-26 23:10:26:988
-4.054;7.978;2.312;9.088;3.323;1.585;-0.54;-1.549;-2.603;-0.887;-0.938;1.025;4.0;0.5;-43.1;-27.1;214.1;-18.4;-75.7;0.0;47.88;39.4689;-0.34092;69.9;NaN;;16.029;;0 / 31;9621;2021-10-26 23:10:27:038
-3.236;7.709;5.787;7.408;3.122;5.622;-0.281;1.758;-4.059;-0.426;-2.894;-0.111;13.0;-1.3;-43.6;-27.1;210.0;-18.6;-52.8;0.0;46.42;39.4689;-0.34092;69.9;NaN;;16.029;;0 / 31;9671;2021-10-26 23:10:27:088
-3.422;8.447;4.947;7.944;3.223;4.76;-0.489;0.435;-3.117;0.041;-3.363;-0.756;13.0;-7.0;-27.2;-9.5;191.2;-19.8;-60.2;0.0;46.42;39.4689;-0.34092;69.9;NaN;;16.029;;0 / 31;9721;2021-10-26 23:10:27:138
-4.614;7.542;6.635;6.651;4.338;5.751;0.789;0.974;-4.048;0.041;-3.363;-0.756;13.0;-9.1;-28.6;-6.8;183.1;-22.8;-51.0;0.0;46.42;39.4689;-0.34092;69.9;NaN;;16.029;;0 / 31;9771;2021-10-26 23:10:27:188
-6.008;7.288;4.99;6.642;5.612;4.535;1.416;0.829;-2.148;0.587;-4.067;-1.834;13.0;-7.1;-33.2;-6.9;186.0;-28.1;-51.8;0.0;46.42;39.4689;-0.34092;69.9;NaN;;16.029;;0 / 31;9820;2021-10-26 23:10:27:237
-7.59;6.173;3.667;5.765;7.187;3.357;2.693;1.611;-0.671;0.777;-3.122;-1.939;13.0;-8.3;-34.0;-2.9;175.2;-47.1;-59.8;0.0;46.42;39.4689;-0.34092;69.9;NaN;;16.029;;0 / 31;9870;2021-10-26 23:10:27:287
-8.068;5.584;0.325;5.574;8.006;1.01;3.241;2.0;1.168;0.998;-1.583;-1.917;13.0;-9.2;-35.0;-0.1;173.0;-54.7;-79.7;0.0;46.42;39.4689;-0.34092;69.9;NaN;;16.029;;0 / 31;9920;2021-10-26 23:10:27:337
-3.226;6.575;1.318;8.073;5.416;1.312;2.227;2.275;3.597;1.287;-0.61;-1.793;13.0;-7.9;-36.8;1.3;184.5;-55.8;-92.8;0.0;46.42;39.4689;-0.34092;69.9;NaN;;16.029;;0 / 31;9970;2021-10-26 23:10:27:387
-5.615;8.236;-0.586;8.135;5.444;-0.579;-0.536;-0.794;3.222;1.481;-0.063;-1.048;23.0;-6.2;-41.0;0.8;176.2;-38.2;-77.5;0.0;42.68;39.4689;-0.34092;69.9;NaN;;16.029;;0 / 31;10021;2021-10-26 23:10:27:438
-4.954;9.519;0.126;8.662;4.597;0.024;-0.515;-2.323;2.518;1.489;0.182;-0.295;23.0;-5.8;-40.9;3.0;177.1;-33.7;-94.1;0.0;42.68;39.4689;-0.34092;69.9;NaN;;16.029;;0 / 31;10071;2021-10-26 23:10:27:488
-4.813;8.226;-0.177;8.442;4.99;0.0;-1.23;-0.826;2.024;1.29;-0.233;0.582;23.0;-3.4;-45.4;5.9;171.1;-29.3;-91.9;0.0;42.68;39.4689;-0.34092;69.9;NaN;;16.029;;0 / 31;10121;2021-10-26 23:10:27:538
-5.354;10.146;1.833;8.605;4.482;1.422;-0.522;-2.066;-0.842;1.189;-0.499;0.534;23.0;-2.4;-45.2;7.4;169.6;-27.4;-76.8;0.0;42.68;39.4689;-0.34092;69.9;NaN;;16.029;;0 / 31;10171;2021-10-26 23:10:27:588
-3.157;11.07;1.965;9.371;2.437;1.556;-2.09;-3.042;-0.817;1.14;-1.125;0.551;23.0;-1.2;-45.2;9.4;167.5;-24.4;-84.9;0.0;42.68;39.4689;-0.34092;69.9;NaN;;16.029;;0 / 31;10220;2021-10-26 23:10:27:637
-2.946;11.58;1.658;9.438;2.289;1.369;-2.091;-3.038;-0.08;1.14;-1.125;0.551;23.0;0.1;-44.6;11.7;164.9;-13.5;-81.7;0.0;42.68;39.4689;-0.34092;69.9;NaN;;16.029;;0 / 31;10271;2021-10-26 23:10:27:688
-2.556;10.955;3.004;9.194;2.155;2.643;-2.092;-3.194;-0.723;1.15;-2.763;0.598;0.0;1.7;-44.0;13.9;163.2;-12.4;-77.8;0.0;50.46;39.4689;-0.34092;69.9;NaN;;16.029;;0 / 31;10321;2021-10-26 23:10:27:738
-2.853;8.387;0.811;9.232;3.242;0.68;-2.001;-0.231;0.271;1.102;-3.145;0.511;0.0;3.5;-42.8;17.1;159.7;-13.9;-78.0;0.0;50.46;39.4689;-0.34092;69.9;NaN;;16.029;;0 / 31;10371;2021-10-26 23:10:27:788
-5.043;7.441;-0.933;8.15;5.368;-0.991;0.221;0.994;2.318;1.061;-2.034;0.157;0.0;4.6;-36.7;19.7;150.7;-25.9;-93.3;0.0;50.46;39.4689;-0.34092;69.9;NaN;;16.029;;0 / 31;10421;2021-10-26 23:10:27:838
-3.674;7.082;-0.765;8.701;4.415;-1.01;0.374;1.724;2.076;1.11;-1.27;-0.177;0.0;7.4;-34.2;23.4;143.8;-26.8;-96.6;0.0;50.46;39.4689;-0.34092;69.9;NaN;;16.029;;0 / 31;10470;2021-10-26 23:10:27:887
-2.53;6.194;-0.359;9.06;3.749;-0.244;-1.442;2.833;1.255;1.355;-0.576;-0.401;0.0;9.1;-33.4;24.6;142.0;-22.5;-95.8;0.0;50.46;39.4689;-0.34092;69.9;NaN;;16.029;;0 / 31;10520;2021-10-26 23:10:27:937
-3.142;5.021;0.093;8.068;5.574;-0.182;-1.041;3.629;0.315;1.311;-0.925;-0.399;0.0;9.7;-30.6;27.4;143.1;-24.8;-86.7;0.0;50.46;39.4689;-0.34092;69.9;NaN;;16.029;;0 / 31;10571;2021-10-26 23:10:27:988
-4.835;5.014;-2.245;6.67;6.512;-3.05;0.534;3.903;2.411;1.265;-1.148;-0.373;0.0;10.3;-30.9;27.8;132.0;-36.9;-101.4;0.0;50.46;39.4689;-0.34092;69.9;NaN;;16.029;;0 / 31;10621;2021-10-26 23:10:28:038
-5.541;5.601;-3.011;6.46;6.57;-3.366;1.516;3.38;2.409;1.083;-0.211;-0.89;11.0;9.7;-29.8;28.7;122.4;-41.6;-114.6;0.0;55.97;39.4689;-0.34092;69.9;NaN;;16.029;;0 / 31;10671;2021-10-26 23:10:28:088
-4.543;7.899;-5.141;7.456;4.219;-4.774;-0.486;0.693;4.269;1.154;0.873;-0.96;11.0;9.1;-29.8;29.0;128.3;-26.7;-123.0;0.0;55.97;39.4689;-0.34092;69.9;NaN;;16.029;;0 / 31;10721;2021-10-26 23:10:28:138
-9.186;9.22;-7.156;6.005;6.211;-4.645;2.687;-1.208;5.781;1.154;0.873;-0.96;11.0;8.0;-29.0;28.9;124.1;-31.7;-126.3;0.0;55.97;39.4689;-0.34092;69.9;NaN;;16.029;;0 / 31;10770;2021-10-26 23:10:28:187
-7.64;6.103;-6.364;5.162;6.306;-5.454;2.435;1.752;3.965;0.688;1.426;-0.968;11.0;8.8;-30.2;28.3;116.8;-44.7;-124.6;0.0;55.97;39.4689;-0.34092;69.9;NaN;;16.029;;0 / 31;10820;2021-10-26 23:10:28:237
-6.221;11.544;-0.445;8.734;4.458;0.148;0.616;-2.423;-0.337;0.561;1.128;-0.733;11.0;8.9;-29.8;27.9;138.1;-27.0;-89.0;0.0;55.97;39.4689;-0.34092;69.9;NaN;;16.029;;0 / 31;10870;2021-10-26 23:10:28:287
-1.429;8.1;2.527;9.194;1.805;2.897;-4.057;-2.476;-5.495;0.474;-1.575;0.727;11.0;9.4;-30.3;27.4;143.0;-8.0;-75.8;0.0;55.97;39.4689;-0.34092;69.9;NaN;;16.029;;0 / 31;10921;2021-10-26 23:10:28:338
-2.513;2.702;2.838;5.727;5.023;6.177;-2.965;4.65;-4.531;0.306;-2.064;0.962;11.0;9.2;-31.1;26.3;150.3;-20.3;-66.5;0.0;42.8;39.4689;-0.34092;69.9;NaN;;16.029;;0 / 31;10971;2021-10-26 23:10:28:388
-4.844;9.639;2.08;8.667;3.462;3.007;-3.62;1.829;-4.843;-1.012;-3.022;1.074;15.0;8.0;-32.1;25.9;157.3;-16.3;-53.5;0.0;42.8;39.4689;-0.34092;69.9;NaN;;16.029;;0 / 31;11021;2021-10-26 23:10:28:438
-4.538;8.368;-0.701;8.729;4.434;-0.541;0.793;-0.473;0.887;-0.789;-2.007;0.522;15.0;6.0;-32.4;25.4;140.3;-26.9;-93.5;0.0;42.8;39.4689;-0.34092;69.9;NaN;;16.029;;0 / 31;11071;2021-10-26 23:10:28:488
-2.671;8.571;1.924;9.179;2.82;1.992;-2.141;0.0;-1.457;-0.291;-1.144;0.478;15.0;5.6;-33.8;23.9;147.9;-16.5;-78.7;0.0;42.8;39.4689;-0.34092;69.9;NaN;;16.029;;0 / 31;11121;2021-10-26 23:10:28:538
-3.813;8.384;1.661;8.744;4.08;1.748;-1.183;0.11;-0.875;-0.056;-0.591;0.482;15.0;5.2;-34.3;23.3;146.9;-21.7;-80.0;0.0;42.8;39.4689;-0.34092;69.9;NaN;;16.029;;0 / 31;11170;2021-10-26 23:10:28:587
-4.121;7.956;2.154;8.466;4.401;2.265;-0.308;0.763;-1.368;-0.261;-0.384;0.424;15.0;5.6;-34.8;22.3;149.7;-26.1;-75.7;0.0;42.8;39.4689;-0.34092;69.9;NaN;;16.029;;0 / 31;11220;2021-10-26 23:10:28:637
-4.136;8.135;1.227;8.653;4.405;1.384;-0.177;0.672;-0.619;-0.382;-0.279;0.322;15.0;4.9;-34.7;21.5;150.4;-26.7;-75.0;0.0;47.81;39.4689;-0.34092;69.9;NaN;;16.029;;0 / 31;11270;2021-10-26 23:10:28:687
-3.197;8.439;1.019;9.131;3.414;1.077;-1.014;0.381;0.209;-0.381;-0.175;0.263;15.0;5.0;-36.2;21.1;150.4;-22.7;-84.3;0.0;47.81;39.4689;-0.34092;69.9;NaN;;16.029;;0 / 31;11321;2021-10-26 23:10:28:738
-3.901;8.803;1.946;8.772;3.936;1.93;-0.316;-0.001;-0.626;-0.337;0.118;0.102;12.0;4.9;-35.9;20.7;152.0;-21.1;-78.4;0.0;47.81;39.4689;-0.34092;69.9;NaN;;16.029;;0 / 31;11371;2021-10-26 23:10:28:788
-5.031;9.84;2.343;8.586;4.3;1.982;0.621;-1.06;-0.765;-0.262;0.185;0.088;12.0;5.5;-36.1;20.5;152.8;-24.7;-78.8;0.0;47.81;39.4689;-0.34092;69.9;NaN;;16.029;;0 / 31;11421;2021-10-26 23:10:28:838
-5.866;8.803;1.847;8.006;5.301;1.997;1.545;0.027;-0.985;-0.264;0.185;0.03;12.0;5.3;-35.5;20.2;152.3;-32.7;-76.0;0.0;47.81;39.4689;-0.34092;69.9;NaN;;16.029;;0 / 31;11471;2021-10-26 23:10:28:888
-6.96;8.952;0.746;7.628;6.009;1.374;2.767;-0.352;0.533;-0.378;0.657;-0.361;12.0;5.5;-35.9;21.9;146.2;-38.0;-86.4;0.0;47.81;39.4689;-0.34092;69.9;NaN;;16.029;;0 / 31;11520;2021-10-26 23:10:28:937
-6.781;7.432;0.679;7.389;6.421;0.584;3.203;0.504;0.599;-0.4;0.707;-0.438;12.0;4.9;-35.0;23.9;147.5;-38.7;-78.9;0.0;47.81;39.4689;-0.34092;69.9;NaN;;16.029;;0 / 31;11570;2021-10-26 23:10:28:987
-1.397;8.37;-1.776;9.462;1.599;-2.021;-3.327;-0.071;3.214;0.076;0.93;-0.32;12.0;4.8;-34.2;25.6;143.2;-30.0;-92.5;0.0;51.54;39.4689;-0.34092;69.9;NaN;;16.029;;0 / 31;11620;2021-10-26 23:10:29:037
-4.792;13.629;0.019;9.251;3.251;-0.158;-1.456;-4.013;1.661;0.611;0.334;0.188;0.0;4.6;-31.9;28.6;137.5;-19.4;-91.0;0.0;51.54;39.4689;-0.34092;69.9;NaN;;16.029;;0 / 31;11671;2021-10-26 23:10:29:088
-1.701;11.178;3.54;9.251;1.25;3.002;-2.456;-2.807;-2.667;0.809;-0.952;0.845;0.0;5.0;-29.6;30.5;139.1;-15.1;-75.8;0.0;51.54;39.4689;-0.34092;69.9;NaN;;16.029;;0 / 31;11721;2021-10-26 23:10:29:138
-4.617;5.237;-2.927;8.169;5.143;-1.757;-1.056;2.537;1.462;0.68;-1.192;0.872;0.0;5.5;-27.9;32.2;131.4;-17.5;-90.0;0.0;51.54;39.4689;-0.34092;69.9;NaN;;16.029;;0 / 31;11770;2021-10-26 23:10:29:187
-8.04;4.263;-1.467;4.688;8.538;-1.135;3.97;4.518;1.645;0.619;-0.838;0.549;0.0;6.8;-25.6;33.9;100.7;-44.5;-134.8;0.0;51.54;39.4689;-0.34092;69.9;NaN;;16.029;;0 / 31;11820;2021-10-26 23:10:29:237
-2.92;6.438;0.71;8.715;4.329;1.226;-0.147;2.243;-0.599;0.619;-0.838;0.549;0.0;7.4;-24.1;34.0;129.2;-26.2;-82.0;0.0;51.54;39.4689;-0.34092;69.9;NaN;;16.029;;0 / 31;11871;2021-10-26 23:10:29:288
-1.357;4.447;-0.38;9.404;2.624;-0.943;-3.689;4.148;0.518;0.42;0.662;-1.191;0.0;6.7;-23.8;33.7;126.3;-20.5;-89.7;0.0;50.48;39.4689;-0.34092;69.9;NaN;;16.029;;0 / 31;11920;2021-10-26 23:10:29:337
-0.825;5.852;-0.208;9.725;1.173;-0.421;-4.56;3.424;0.516;0.357;-0.586;-0.027;0.0;5.9;-24.2;31.8;125.6;-8.3;-97.7;0.0;50.48;39.4689;-0.34092;69.9;NaN;;16.029;;0 / 31;11971;2021-10-26 23:10:29:388
-4.954;9.021;-1.979;7.954;5.162;-2.5;0.776;-0.445;2.167;0.705;-1.176;1.061;0.0;5.7;-25.1;30.8;128.8;-13.4;-93.9;0.0;50.48;39.4689;-0.34092;69.9;NaN;;16.029;;0 / 31;12021;2021-10-26 23:10:29:438
-11.264;9.531;-5.893;5.895;6.895;-3.735;5.525;-0.429;5.255;1.024;0.424;-0.072;0.0;6.0;-26.5;29.3;111.9;-44.7;-122.4;0.0;50.48;39.4689;-0.34092;69.9;NaN;;16.029;;0 / 31;12071;2021-10-26 23:10:29:488
-9.627;4.05;-5.392;4.817;7.872;-3.318;7.597;-1.693;3.472;0.484;1.203;-0.982;0.0;6.4;-27.5;28.6;105.3;-53.4;-124.6;0.0;50.48;39.4689;-0.34092;69.9;NaN;;16.029;;0 / 31;12121;2021-10-26 23:10:29:538
-3.98;7.623;-1.61;7.513;4.966;-3.879;-0.651;3.329;3.313;-0.138;2.07;-1.877;0.0;7.2;-27.7;28.2;113.5;-40.0;-143.1;0.0;50.48;39.4689;-0.34092;69.9;NaN;;16.029;;0 / 31;12170;2021-10-26 23:10:29:587
-3.367;17.016;7.513;8.959;1.116;3.836;-2.39;-8.969;-9.094;-0.28;0.089;-0.291;0.0;7.7;-27.8;27.5;144.7;-16.5;-67.1;0.0;50.48;39.4689;-0.34092;69.9;NaN;;16.029;;0 / 31;12221;2021-10-26 23:10:29:638
-2.041;4.105;0.323;8.562;4.774;0.192;-4.453;0.004;-3.564;-0.397;-1.372;0.889;0.0;8.0;-28.5;25.6;138.8;-29.1;-88.7;0.0;59.63;39.4689;-0.34092;69.9;NaN;;16.029;;0 / 31;12270;2021-10-26 23:10:29:687
-1.957;8.588;-0.478;9.529;2.255;-0.503;-3.214;0.133;0.12;-0.689;-2.271;1.517;0.0;8.4;-28.9;24.3;140.5;-8.7;-93.6;0.0;59.63;39.4689;-0.34092;69.9;NaN;;16.029;;0 / 31;12320;2021-10-26 23:10:29:737
-4.873;8.377;3.935;7.839;4.482;3.821;0.498;-0.067;-3.16;-0.689;-2.271;1.517;0.0;9.0;-30.0;22.3;148.6;-26.7;-76.5;0.0;59.63;39.4689;-0.34092;69.9;NaN;;16.029;;0 / 31;12371;2021-10-26 23:10:29:788
-3.004;7.918;1.304;9.021;3.606;1.326;-1.177;0.897;-0.398;-0.689;-2.271;1.517;0.0;9.0;-30.3;21.6;155.5;-20.4;-63.5;0.0;59.63;39.4689;-0.34092;69.9;NaN;;16.029;;0 / 31;12420;2021-10-26 23:10:29:837
-5.383;7.468;1.235;7.887;5.698;1.221;0.837;1.27;-1.267;-0.689;-2.271;1.517;0.0;9.4;-30.8;20.0;150.3;-35.5;-81.2;0.0;59.63;39.4689;-0.34092;69.9;NaN;;16.029;;0 / 31;12471;2021-10-26 23:10:29:888
-4.875;7.75;0.509;8.303;5.2;0.484;0.924;1.055;0.603;-0.635;-0.166;-0.159;0.0;9.6;-31.0;19.1;150.2;-32.0;-86.7;0.0;59.63;39.4689;-0.34092;69.9;NaN;;16.029;;0 / 31;12521;2021-10-26 23:10:29:938
-5.067;7.623;1.005;8.126;5.401;0.991;0.626;0.978;0.388;-0.243;0.607;-0.358;0.0;10.1;-30.8;17.8;151.9;-32.4;-85.9;0.0;59.63;39.4689;-0.34092;69.9;NaN;;16.029;;0 / 31;12570;2021-10-26 23:10:29:987
-4.849;8.198;0.071;8.466;4.951;0.043;0.613;0.72;0.739;-0.246;0.653;-0.372;0.0;10.4;-31.1;17.0;153.7;-33.4;-84.5;0.0;60.4;39.4689;-0.34092;69.9;NaN;;16.029;;0 / 31;12620;2021-10-26 23:10:30:037
-5.23;9.323;1.747;8.437;4.731;1.609;0.287;-0.746;-0.286;-0.062;0.665;-0.245;0.0;10.2;-31.2;16.0;157.4;-28.8;-79.2;0.0;60.4;39.4689;-0.34092;69.9;NaN;;16.029;;0 / 31;12670;2021-10-26 23:10:30:087
-6.031;8.827;2.482;7.824;5.44;2.313;0.817;-1.069;-0.837;-0.048;0.28;-0.078;0.0;10.2;-31.3;15.4;160.0;-32.0;-76.0;0.0;60.4;39.4689;-0.34092;69.9;NaN;;16.029;;0 / 31;12720;2021-10-26 23:10:30:137
-5.222;8.301;-0.521;8.183;5.382;-0.527;-1.04;-0.388;0.777;-0.109;0.158;-0.017;0.0;9.6;-31.9;14.7;157.6;-25.7;-84.3;0.0;60.4;39.4689;-0.34092;69.9;NaN;;16.029;;0 / 31;12771;2021-10-26 23:10:30:188
-8.566;9.332;1.18;7.207;6.589;0.915;2.735;-1.507;-0.096;-0.363;0.521;-0.248;0.0;9.2;-31.9;14.4;156.0;-36.1;-85.2;0.0;60.4;39.4689;-0.34092;69.9;NaN;;16.029;;0 / 31;12820;2021-10-26 23:10:30:237
-1.328;8.059;-0.773;9.333;2.94;0.699;-2.058;0.9;0.448;-0.377;0.586;-0.263;0.0;8.5;-30.1;15.1;155.4;-17.4;-85.7;0.0;60.4;39.4689;-0.34092;69.9;NaN;;16.029;;0 / 31;12871;2021-10-26 23:10:30:288
-3.796;12.494;-2.85;9.151;3.012;-1.839;-0.809;-4.362;3.451;0.362;0.557;0.259;0.0;8.1;-28.5;16.6;147.0;-12.8;-108.4;0.0;57.47;39.4689;-0.34092;69.9;NaN;;16.029;;0 / 31;12920;2021-10-26 23:10:30:337
-7.592;12.305;3.286;8.246;4.793;2.294;4.078;-4.274;-2.139;0.362;0.557;0.259;0.0;7.7;-25.8;19.3;150.4;-36.1;-79.0;0.0;57.47;39.4689;-0.34092;69.9;NaN;;16.029;;0 / 31;12970;2021-10-26 23:10:30:387
-1.632;7.094;1.402;9.323;1.906;2.365;-3.329;0.233;-3.0;0.44;-0.257;0.479;0.0;7.7;-24.6;21.1;150.7;-15.5;-68.7;0.0;57.47;39.4689;-0.34092;69.9;NaN;;16.029;;0 / 31;13021;2021-10-26 23:10:30:438
-4.543;6.527;-1.979;7.93;5.344;-2.184;0.296;2.383;3.958;0.373;-0.429;0.133;0.0;7.7;-23.0;23.8;128.4;-33.0;-105.4;0.0;57.47;39.4689;-0.34092;69.9;NaN;;16.029;;0 / 31;13071;2021-10-26 23:10:30:488
-2.644;5.541;0.988;8.681;4.31;1.484;-0.812;2.436;0.462;0.283;-0.45;-0.023;0.0;7.7;-22.2;25.1;135.5;-29.5;-83.7;0.0;57.47;39.4689;-0.34092;69.9;NaN;;16.029;;0 / 31;13121;2021-10-26 23:10:30:538
-1.175;3.679;0.141;9.783;0.517;0.484;-3.419;4.387;-0.169;0.812;-0.127;0.007;0.0;6.4;-20.8;27.1;131.8;-15.2;-82.2;0.0;57.47;39.4689;-0.34092;69.9;NaN;;16.029;;0 / 31;13170;2021-10-26 23:10:30:587
-0.074;5.682;-0.495;9.759;0.407;-0.886;-5.082;4.2;0.115;0.493;-1.141;0.781;0.0;5.0;-20.8;27.8;125.2;9.4;-90.0;0.0;57.47;39.4689;-0.34092;69.9;NaN;;16.029;;0 / 31;13220;2021-10-26 23:10:30:637
-6.029;10.146;-5.862;7.321;4.721;-4.506;0.583;-0.725;4.426;0.806;-0.942;0.941;0.0;4.2;-21.4;28.1;126.0;-12.8;-97.6;0.0;60.34;39.4689;-0.34092;69.9;NaN;;16.029;;0 / 31;13271;2021-10-26 23:10:30:688
-13.502;7.324;-5.536;4.578;7.489;-4.381;6.951;-0.021;9.127;1.396;1.124;-0.347;0.0;3.0;-22.9;28.8;93.0;-49.8;-133.7;0.0;60.34;39.4689;-0.34092;69.9;NaN;;16.029;;0 / 31;13320;2021-10-26 23:10:30:737
-7.156;8.602;-7.152;6.507;5.138;-5.239;5.132;1.118;3.192;0.211;2.349;-2.012;0.0;2.9;-23.6;29.1;102.9;-56.1;-112.6;0.0;60.34;39.4689;-0.34092;69.9;NaN;;16.029;;0 / 31;13370;2021-10-26 23:10:30:787
-4.308;14.646;4.325;9.112;2.342;2.763;-0.515;-6.228;-5.937;0.156;2.37;-2.034;0.0;3.0;-24.5;29.0;120.4;-29.7;-114.9;0.0;60.34;39.4689;-0.34092;69.9;NaN;;16.029;;0 / 31;13421;2021-10-26 23:10:30:838
-0.643;4.595;3.595;8.499;0.067;4.889;-5.546;-0.294;-6.21;0.156;2.37;-2.034;0.0;3.5;-25.6;28.1;135.1;-13.8;-73.1;0.0;60.34;39.4689;-0.34092;69.9;NaN;;16.029;;0 / 31;13471;2021-10-26 23:10:30:888
-0.191;5.921;2.331;9.203;0.627;3.338;-4.832;3.075;-3.178;-0.801;-1.243;0.907;0.0;3.5;-27.6;26.5;142.6;-6.4;-64.3;0.0;60.34;39.4689;-0.34092;69.9;NaN;;16.029;;0 / 31;13520;2021-10-26 23:10:30:937
-4.784;10.225;3.188;8.011;5.138;2.375;-0.172;-1.617;-3.321;-1.619;-1.977;1.36;0.0;2.9;-28.9;25.2;143.2;-11.8;-71.9;0.0;62.22;39.4689;-0.34092;69.9;NaN;;16.029;;0 / 31;13570;2021-10-26 23:10:30:987
-4.653;6.963;0.682;7.671;6.081;-0.594;1.948;1.153;1.209;-1.174;-1.005;0.499;0.0;1.7;-30.4;23.5;133.9;-39.4;-94.9;0.0;62.22;39.4689;-0.34092;69.9;NaN;;16.029;;0 / 31;13621;2021-10-26 23:10:31:038
-4.186;7.822;1.091;8.552;4.63;1.283;-0.157;1.121;-0.344;-0.557;0.097;-0.043;0.0;0.9;-31.7;21.7;144.4;-28.2;-81.5;0.0;62.22;39.4689;-0.34092;69.9;NaN;;16.029;;0 / 31;13671;2021-10-26 23:10:31:088
-3.954;8.056;1.108;8.744;4.228;1.35;-0.558;0.544;0.146;-0.398;0.807;-0.262;0.0;1.2;-32.3;21.0;145.4;-25.7;-84.5;0.0;62.22;39.4689;-0.34092;69.9;NaN;;16.029;;0 / 31;13721;2021-10-26 23:10:31:138
-3.935;7.836;2.259;8.504;4.329;2.26;-0.618;0.808;-0.829;-0.362;0.733;-0.063;0.0;1.3;-33.0;19.5;148.6;-25.8;-79.0;0.0;62.22;39.4689;-0.34092;69.9;NaN;;16.029;;0 / 31;13771;2021-10-26 23:10:31:188
-3.853;8.198;1.51;8.777;4.104;1.532;-0.542;0.575;-0.958;-0.395;0.478;0.113;0.0;1.4;-33.0;18.6;150.5;-25.8;-75.9;0.0;62.22;39.4689;-0.34092;69.9;NaN;;16.029;;0 / 31;13820;2021-10-26 23:10:31:237
-4.219;9.337;1.721;9.031;3.663;1.097;-0.755;-0.773;0.142;-0.357;0.366;0.185;0.0;1.6;-33.1;17.4;150.5;-23.3;-83.8;0.0;62.22;39.4689;-0.34092;69.9;NaN;;16.029;;0 / 31;13870;2021-10-26 23:10:31:287
-5.632;9.055;1.941;8.174;5.171;1.614;0.733;-0.386;-1.077;-0.378;0.27;0.204;0.0;2.4;-33.7;16.2;154.1;-31.8;-78.8;0.0;51.1;39.4689;-0.34092;69.9;NaN;;16.029;;0 / 31;13921;2021-10-26 23:10:31:338
-7.968;8.181;0.438;6.948;6.914;0.35;2.473;0.121;0.746;-0.378;0.27;0.204;0.0;2.7;-33.4;15.7;153.5;-25.4;-85.9;0.0;51.1;39.4689;-0.34092;69.9;NaN;;16.029;;0 / 31;13971;2021-10-26 23:10:31:388
-8.504;10.055;0.878;7.556;6.22;0.618;4.824;-1.107;0.253;-0.378;0.27;0.204;0.0;3.1;-33.1;16.5;147.4;-47.8;-87.9;0.0;51.1;39.4689;-0.34092;69.9;NaN;;16.029;;0 / 31;14021;2021-10-26 23:10:31:438
-3.288;7.152;-0.995;9.39;2.385;-1.523;-1.375;1.163;1.966;-0.36;1.079;-0.551;0.0;4.4;-31.9;18.3;149.5;-14.1;-99.2;0.0;51.1;39.4689;-0.34092;69.9;NaN;;16.029;;0 / 31;14071;2021-10-26 23:10:31:488
-5.134;12.317;-0.686;8.959;3.893;-0.876;-2.575;-0.603;3.721;-0.12;1.129;-0.37;0.0;5.3;-30.9;20.2;144.9;-18.1;-105.7;0.0;51.1;39.4689;-0.34092;69.9;NaN;;16.029;;0 / 31;14121;2021-10-26 23:10:31:538
-7.324;14.292;1.943;8.71;4.29;1.384;2.563;-5.96;-1.026;0.649;0.045;0.41;0.0;6.5;-29.6;22.3;143.6;-27.6;-88.7;0.0;51.1;39.4689;-0.34092;69.9;NaN;;16.029;;0 / 31;14171;2021-10-26 23:10:31:588
-1.218;6.845;-1.12;9.625;0.445;1.824;-3.877;-1.051;-3.037;0.836;-1.416;0.802;0.0;7.9;-28.3;25.1;146.3;-5.0;-69.8;0.0;44.68;39.4689;-0.34092;69.9;NaN;;16.029;;0 / 31;14220;2021-10-26 23:10:31:637
-5.668;5.632;-4.485;5.976;5.904;-5.061;0.777;3.135;5.574;0.899;-1.112;0.428;0.0;8.7;-26.6;26.8;134.5;-13.6;-103.4;0.0;44.68;39.4689;-0.34092;69.9;NaN;;16.029;;0 / 31;14270;2021-10-26 23:10:31:687
-4.387;5.699;2.154;7.154;6.258;2.423;1.588;3.069;0.093;0.701;-0.758;-0.111;0.0;9.4;-24.9;28.5;141.2;-39.6;-71.3;0.0;44.68;39.4689;-0.34092;69.9;NaN;;16.029;;0 / 31;14320;2021-10-26 23:10:31:737
0.043;5.196;1.654;9.539;-1.456;1.738;-3.526;3.207;-2.152;0.721;-0.343;-0.447;0.0;8.9;-23.9;29.1;141.8;-16.9;-65.6;0.0;44.68;39.4689;-0.34092;69.9;NaN;;16.029;;0 / 31;14371;2021-10-26 23:10:31:788
-0.32;7.097;-1.263;9.692;-0.661;-1.341;-5.42;2.471;0.828;0.215;-1.659;0.449;0.0;7.2;-24.7;29.3;125.4;16.6;-83.2;0.0;44.68;39.4689;-0.34092;69.9;NaN;;16.029;;0 / 31;14421;2021-10-26 23:10:31:838
-7.336;10.156;-6.149;7.93;4.463;-3.658;0.032;-0.929;3.686;0.194;-1.994;0.927;0.0;5.6;-26.0;28.6;124.9;-27.1;-114.8;0.0;44.68;39.4689;-0.34092;69.9;NaN;;16.029;;0 / 31;14470;2021-10-26 23:10:31:887
-9.706;6.453;-4.569;4.793;7.192;-4.63;6.106;1.049;7.529;0.194;-1.994;0.927;0.0;5.6;-26.6;28.3;106.6;-47.2;-134.0;0.0;50.19;39.4689;-0.34092;69.9;NaN;;16.029;;0 / 31;14521;2021-10-26 23:10:31:938
-8.535;7.561;-4.495;5.942;6.871;-3.697;4.507;0.715;2.196;0.194;-1.994;0.927;0.0;6.6;-27.1;27.5;116.9;-51.3;-108.4;0.0;50.19;39.4689;-0.34092;69.9;NaN;;16.029;;0 / 31;14571;2021-10-26 23:10:31:988
-6.702;11.257;-4.492;8.188;4.597;-2.844;1.832;-1.537;3.56;-0.138;2.286;-2.043;0.0;7.2;-27.3;26.9;113.4;-45.3;-128.0;0.0;50.19;39.4689;-0.34092;69.9;NaN;;16.029;;0 / 31;14621;2021-10-26 23:10:32:038
-3.056;13.825;4.816;9.045;2.274;3.031;0.695;-6.765;-6.025;-0.179;0.698;-0.831;0.0;8.0;-28.3;26.5;144.4;-13.4;-71.5;0.0;50.19;39.4689;-0.34092;69.9;NaN;;16.029;;0 / 31;14671;2021-10-26 23:10:32:088
-1.28;3.159;2.498;7.748;1.93;5.693;-5.048;-0.723;-5.735;-0.295;-1.173;0.664;0.0;8.3;-28.8;25.7;153.6;-11.3;-53.7;0.0;50.19;39.4689;-0.34092;69.9;NaN;;16.029;;0 / 31;14720;2021-10-26 23:10:32:137
-0.619;8.988;2.07;9.701;-0.038;1.441;-5.384;2.454;-1.406;-0.549;-2.01;1.178;0.0;8.7;-29.6;25.0;142.2;-2.7;-82.8;0.0;50.19;39.4689;-0.34092;69.9;NaN;;16.029;;0 / 31;14771;2021-10-26 23:10:32:188
-5.033;9.708;4.325;8.274;4.104;3.299;0.572;-1.184;-4.242;-1.128;-2.19;1.067;0.0;8.8;-30.6;23.9;149.4;-17.2;-71.0;0.0;50.19;39.4689;-0.34092;69.9;NaN;;16.029;;0 / 31;14821;2021-10-26 23:10:32:238
-4.672;7.372;1.089;8.236;5.253;0.9;0.095;1.133;1.379;-0.641;-1.246;0.489;0.0;8.6;-31.6;23.3;146.6;-32.4;-83.8;0.0;67.45;39.4689;-0.34092;69.9;NaN;;16.029;;0 / 31;14871;2021-10-26 23:10:32:288
-6.146;6.922;1.536;7.235;6.522;1.144;1.545;1.751;-0.919;-0.536;-0.177;-0.19;0.0;9.2;-31.9;23.1;146.5;-41.7;-81.0;0.0;67.45;39.4689;-0.34092;69.9;NaN;;16.029;;0 / 31;14921;2021-10-26 23:10:32:338
-4.775;7.358;0.215;7.848;5.88;0.091;1.145;1.592;1.176;-0.46;0.582;-0.598;0.0;9.9;-32.3;22.8;144.1;-39.8;-88.4;0.0;67.45;39.4689;-0.34092;69.9;NaN;;16.029;;0 / 31;14970;2021-10-26 23:10:32:387
-4.629;7.989;1.287;8.404;4.851;1.413;-0.103;0.426;-0.079;-0.46;0.582;-0.598;0.0;11.5;-32.2;23.1;147.4;-29.4;-84.7;0.0;67.45;39.4689;-0.34092;69.9;NaN;;16.029;;0 / 31;15020;2021-10-26 23:10:32:437
-4.739;8.423;0.849;8.504;4.808;0.867;-0.091;0.181;0.323;-0.46;0.582;-0.598;0.0;12.3;-32.5;23.2;149.8;-29.6;-80.5;0.0;67.45;39.4689;-0.34092;69.9;NaN;;16.029;;0 / 31;15071;2021-10-26 23:10:32:488
-4.681;8.992;1.709;8.59;4.439;1.642;-0.387;-0.399;-0.517;0.203;-0.277;0.037;0.0;12.5;-32.7;22.9;150.4;-27.8;-80.5;0.0;67.45;39.4689;-0.34092;69.9;NaN;;16.029;;0 / 31;15121;2021-10-26 23:10:32:538
-4.444;9.687;1.756;8.806;4.017;1.585;-0.181;-1.207;-0.808;0.161;-0.433;0.089;0.0;12.3;-33.0;22.6;151.2;-26.0;-78.8;0.0;58.33;39.4689;-0.34092;69.9;NaN;;16.029;;0 / 31;15170;2021-10-26 23:10:32:587
-6.515;8.648;1.484;7.853;5.765;1.116;1.689;-0.232;-0.276;0.114;-0.448;0.135;0.0;12.4;-33.4;23.2;151.5;-24.1;-79.3;0.0;58.33;39.4689;-0.34092;69.9;NaN;;16.029;;0 / 31;15221;2021-10-26 23:10:32:638
-9.418;8.612;1.326;6.665;7.125;0.982;3.056;-1.226;-0.318;-0.11;-0.081;-0.136;0.0;13.0;-33.4;24.8;146.6;-46.6;-81.6;0.0;58.33;39.4689;-0.34092;69.9;NaN;;16.029;;0 / 31;15270;2021-10-26 23:10:32:687
-4.691;6.003;-0.301;7.451;6.369;-0.283;2.786;1.244;0.39;-0.291;0.406;-0.469;0.0;14.5;-32.4;26.5;140.0;-40.5;-92.2;0.0;58.33;39.4689;-0.34092;69.9;NaN;;16.029;;0 / 31;15321;2021-10-26 23:10:32:738
-4.337;10.967;-3.901;8.643;3.677;-2.816;-3.506;-0.787;5.89;0.389;0.609;-0.235;0.0;15.6;-28.3;30.8;129.2;-22.0;-108.0;0.0;58.33;39.4689;-0.34092;69.9;NaN;;16.029;;0 / 31;15370;2021-10-26 23:10:32:787
-9.256;11.398;2.735;7.465;6.139;1.671;4.748;-3.662;-1.564;0.843;0.309;-0.048;0.0;15.0;-25.1;34.6;131.5;-37.7;-86.7;0.0;58.33;39.4689;-0.34092;69.9;NaN;;16.029;;0 / 31;15421;2021-10-26 23:10:32:838
-0.636;7.944;4.208;8.777;1.35;4.166;-3.355;-0.145;-3.766;1.002;-0.908;0.485;0.0;12.2;-22.0;39.7;135.4;-15.6;-66.5;0.0;58.33;39.4689;-0.34092;69.9;NaN;;16.029;;0 / 31;15470;2021-10-26 23:10:32:887
-6.314;6.448;-5.938;5.832;5.741;-5.406;1.273;2.12;6.117;0.723;-1.115;0.512;0.0;10.2;-21.1;41.6;121.5;-20.7;-85.8;0.0;41.43;39.4689;-0.34092;69.9;NaN;;16.029;;0 / 31;15521;2021-10-26 23:10:32:938
-3.777;6.613;-0.469;8.552;4.788;-0.431;-0.803;1.382;1.815;0.723;-1.115;0.512;0.0;6.8;-22.0;41.6;117.0;-29.2;-92.9;0.0;41.43;39.4689;-0.34092;69.9;NaN;;16.029;;0 / 31;15571;2021-10-26 23:10:32:988
-0.636;5.179;0.473;9.744;0.675;0.881;-4.267;3.39;-0.584;0.723;-1.115;0.512;0.0;4.8;-23.2;40.4;121.4;-9.8;-85.1;0.0;41.43;39.4689;-0.34092;69.9;NaN;;16.029;;0 / 31;15620;2021-10-26 23:10:33:037
-0.189;5.234;-1.153;9.543;0.508;-2.207;-5.069;3.598;0.367;0.954;0.242;0.54;0.0;1.9;-25.8;37.5;122.9;4.7;-99.4;0.0;41.43;39.4689;-0.34092;69.9;NaN;;16.029;;0 / 31;15671;2021-10-26 23:10:33:088
-4.677;8.825;-3.47;8.088;4.444;-3.314;0.283;0.23;2.672;0.221;-0.082;1.049;0.0;1.2;-27.5;35.4;124.4;-15.2;-102.8;0.0;41.43;39.4689;-0.34092;69.9;NaN;;16.029;;0 / 31;15720;2021-10-26 23:10:33:137
-10.393;7.238;-4.942;5.009;7.661;-3.524;5.289;0.789;3.934;0.497;1.06;-0.105;0.0;1.3;-29.5;32.4;99.3;-51.4;-125.1;0.0;41.43;39.4689;-0.34092;69.9;NaN;;16.029;;0 / 31;15770;2021-10-26 23:10:33:187
-11.666;7.267;-1.366;4.439;8.724;-0.594;7.787;2.969;1.315;-0.643;2.083;-2.089;0.0;1.8;-30.3;30.9;110.9;-62.8;-97.6;0.0;58.63;39.4689;-0.34092;69.9;NaN;;16.029;;0 / 31;15820;2021-10-26 23:10:33:237
-8.937;9.368;-3.504;6.953;6.488;-2.385;3.662;0.192;2.617;-1.006;1.895;-2.099;0.0;2.5;-31.0;28.5;117.4;-45.1;-116.9;0.0;58.63;39.4689;-0.34092;69.9;NaN;;16.029;;0 / 31;15871;2021-10-26 23:10:33:288
-3.607;13.574;1.811;9.443;2.308;1.293;-1.967;-6.095;-3.246;-0.991;1.104;-1.134;0.0;3.1;-31.1;27.3;132.5;-37.0;-92.8;0.0;58.63;39.4689;-0.34092;69.9;NaN;;16.029;;0 / 31;15920;2021-10-26 23:10:33:337
-1.048;4.737;-0.016;9.558;2.193;-0.105;-4.535;0.903;-1.522;-0.705;0.377;0.024;0.0;3.6;-31.0;25.7;140.3;-13.6;-82.2;0.0;58.63;39.4689;-0.34092;69.9;NaN;;16.029;;0 / 31;15970;2021-10-26 23:10:33:387
0.055;9.509;3.736;9.146;-0.393;3.515;-6.389;-0.493;-4.16;-0.358;-1.244;1.567;52.0;4.0;-31.5;23.5;143.6;9.8;-73.6;0.0;58.63;39.4689;-0.34092;69.9;NaN;;16.029;;0 / 31;16020;2021-10-26 23:10:33:437
-5.665;8.518;4.033;7.714;5.009;3.4;0.772;-0.551;-5.239;-0.358;-1.244;1.567;52.0;4.1;-32.0;22.2;153.0;-24.3;-62.7;0.0;58.63;39.4689;-0.34092;69.9;NaN;;16.029;;0 / 31;16070;2021-10-26 23:10:33:487
-4.983;7.092;-0.61;8.03;5.626;-0.23;0.314;1.585;1.362;-0.358;-1.244;1.567;52.0;3.2;-33.1;19.9;148.0;-27.5;-82.2;0.0;58.63;39.4689;-0.34092;69.9;NaN;;16.029;;0 / 31;16120;2021-10-26 23:10:33:537
-4.76;8.116;1.249;8.729;4.439;0.527;1.154;0.786;-0.735;-0.836;-0.594;0.384;52.0;2.9;-33.6;18.7;150.3;-28.9;-82.5;0.0;55.39;39.4689;-0.34092;69.9;NaN;;16.029;;0 / 31;16170;2021-10-26 23:10:33:587
-4.318;8.198;0.294;8.614;4.683;0.23;0.869;1.011;1.041;-0.432;0.947;-0.26;52.0;2.8;-33.7;18.0;148.5;-33.7;-92.5;0.0;55.39;39.4689;-0.34092;69.9;NaN;;16.029;;0 / 31;16220;2021-10-26 23:10:33:637
-4.272;8.037;1.539;8.566;4.458;1.724;-0.544;0.472;-0.303;-0.324;0.978;-0.156;52.0;3.8;-33.9;17.3;152.3;-26.4;-83.2;0.0;55.39;39.4689;-0.34092;69.9;NaN;;16.029;;0 / 31;16271;2021-10-26 23:10:33:688
-4.145;7.535;1.522;8.475;4.659;1.628;-0.605;0.981;-0.622;-0.312;0.638;-0.016;41.0;4.1;-34.3;16.5;154.7;-26.7;-78.7;0.0;55.39;39.4689;-0.34092;69.9;NaN;;16.029;;0 / 31;16321;2021-10-26 23:10:33:738
-5.143;8.65;1.809;8.361;4.836;1.695;-0.118;-0.025;-0.767;-0.315;0.228;0.126;41.0;4.3;-34.7;15.5;157.7;-29.6;-78.5;0.0;55.39;39.4689;-0.34092;69.9;NaN;;16.029;;0 / 31;16370;2021-10-26 23:10:33:787
-5.491;9.301;1.831;8.322;4.932;1.599;0.734;-0.727;-0.766;-0.402;0.025;0.075;41.0;3.7;-34.8;14.8;157.6;-30.4;-78.3;0.0;55.39;39.4689;-0.34092;69.9;NaN;;16.029;;0 / 31;16421;2021-10-26 23:10:33:838
-5.696;8.712;0.672;8.203;5.339;0.608;0.88;-0.416;0.356;-0.37;0.207;-0.014;41.0;3.5;-34.5;14.8;154.8;-32.1;-84.6;0.0;57.7;39.4689;-0.34092;69.9;NaN;;16.029;;0 / 31;16470;2021-10-26 23:10:33:887
-7.652;10.247;0.928;7.527;6.282;0.105;2.529;-1.885;0.144;-0.33;0.56;-0.157;41.0;3.1;-34.9;15.4;155.6;-32.3;-83.5;0.0;57.7;39.4689;-0.34092;69.9;NaN;;16.029;;0 / 31;16521;2021-10-26 23:10:33:938
-2.621;7.472;-1.122;8.863;4.104;-0.905;1.244;-0.011;1.03;-0.286;0.721;-0.23;41.0;3.8;-34.3;16.9;151.4;-24.7;-95.8;0.0;57.7;39.4689;-0.34092;69.9;NaN;;16.029;;0 / 31;16571;2021-10-26 23:10:33:988
-2.434;9.028;-1.78;9.294;2.83;-1.331;-2.418;-0.906;2.764;-0.286;0.721;-0.23;41.0;4.6;-34.1;18.1;150.8;-14.0;-100.7;0.0;57.7;39.4689;-0.34092;69.9;NaN;;16.029;;0 / 31;16621;2021-10-26 23:10:34:038
-7.92;11.341;1.388;7.939;5.602;1.326;1.894;-2.759;0.631;0.399;0.514;0.266;33.0;5.9;-32.4;20.8;145.3;-26.5;-102.6;0.0;57.7;39.4689;-0.34092;69.9;NaN;;16.029;;0 / 31;16670;2021-10-26 23:10:34:087
-1.907;8.595;3.501;8.916;1.877;3.625;-2.594;-0.17;-3.0;0.514;-0.931;0.551;33.0;6.4;-31.2;22.6;148.8;-32.8;-76.1;0.0;57.7;39.4689;-0.34092;69.9;NaN;;16.029;;0 / 31;16720;2021-10-26 23:10:34:137
-4.765;7.125;-3.367;7.307;5.195;-3.97;-0.72;1.245;2.24;0.411;-1.211;0.495;33.0;6.7;-29.5;25.3;130.4;-32.0;-118.5;0.0;54.07;39.4689;-0.34092;69.9;NaN;;16.029;;0 / 31;16771;2021-10-26 23:10:34:188
-4.973;6.587;-0.55;7.877;5.837;-0.283;0.587;2.041;1.3;0.471;-0.428;-0.149;33.0;7.1;-28.6;26.8;130.3;-38.3;-101.6;0.0;54.07;39.4689;-0.34092;69.9;NaN;;16.029;;0 / 31;16821;2021-10-26 23:10:34:238
-1.876;5.22;0.708;9.251;3.017;1.202;-1.747;3.23;-0.584;0.73;-0.402;-0.125;33.0;7.1;-27.9;28.0;138.8;-27.2;-80.3;0.0;54.07;39.4689;-0.34092;69.9;NaN;;16.029;;0 / 31;16871;2021-10-26 23:10:34:288
0.557;4.856;-0.071;9.754;-0.991;0.0;-4.317;3.87;-0.323;0.913;-0.439;0.068;33.0;6.8;-28.2;28.2;137.4;-10.8;-83.5;0.0;54.07;39.4689;-0.34092;69.9;NaN;;16.029;;0 / 31;16921;2021-10-26 23:10:34:338
-1.754;8.71;-2.113;9.251;2.155;-2.437;-3.749;1.319;1.157;0.659;-1.824;1.009;33.0;6.1;-28.9;27.4;135.4;-12.7;-104.8;0.0;54.07;39.4689;-0.34092;69.9;NaN;;16.029;;0 / 31;16971;2021-10-26 23:10:34:388
-8.504;9.308;-6.994;5.923;6.249;-4.693;4.168;-1.032;6.616;1.555;-0.636;0.763;35.0;5.5;-30.0;26.8;127.2;-33.0;-124.7;0.0;54.07;39.4689;-0.34092;69.9;NaN;;16.029;;0 / 31;17021;2021-10-26 23:10:34:438
-12.753;6.402;-2.941;4.314;8.595;-1.925;6.83;2.555;2.669;0.867;1.555;-0.831;35.0;6.2;-30.4;26.0;117.3;-46.5;-128.1;0.0;54.07;39.4689;-0.34092;69.9;NaN;;16.029;;0 / 31;17071;2021-10-26 23:10:34:488
-8.523;9.71;-4.097;6.512;6.402;-3.572;4.185;-0.638;3.478;0.259;2.104;-1.595;35.0;6.9;-31.0;25.9;111.0;-60.2;-118.2;0.0;52.94;39.4689;-0.34092;69.9;NaN;;16.029;;0 / 31;17120;2021-10-26 23:10:34:537
-4.595;11.714;3.939;8.792;3.156;2.993;0.454;-3.195;-5.268;0.259;2.104;-1.595;35.0;7.8;-31.3;25.5;132.4;-38.5;-103.9;0.0;52.94;39.4689;-0.34092;69.9;NaN;;16.029;;0 / 31;17170;2021-10-26 23:10:34:587
0.004;5.699;1.397;9.558;-0.278;2.174;-5.55;2.005;-2.974;0.259;2.104;-1.595;35.0;7.9;-32.0;25.3;145.4;-1.7;-76.1;0.0;52.94;39.4689;-0.34092;69.9;NaN;;16.029;;0 / 31;17221;2021-10-26 23:10:34:638
-0.859;7.463;-0.246;9.701;1.413;-0.302;-5.274;1.87;-1.059;-0.154;-1.992;1.178;35.0;7.6;-32.8;24.4;142.9;-0.9;-90.1;0.0;52.94;39.4689;-0.34092;69.9;NaN;;16.029;;0 / 31;17271;2021-10-26 23:10:34:688
-6.793;9.258;2.877;7.427;6.029;2.169;1.894;-0.884;-3.039;-0.35;-2.234;1.276;34.0;7.1;-33.4;23.9;146.9;-24.2;-80.5;0.0;52.94;39.4689;-0.34092;69.9;NaN;;16.029;;0 / 31;17321;2021-10-26 23:10:34:738
-4.76;5.878;0.292;7.412;6.335;-1.049;0.032;1.818;0.967;-0.176;-0.97;0.52;34.0;7.0;-34.0;23.0;140.0;-40.2;-98.1;0.0;52.94;39.4689;-0.34092;69.9;NaN;;16.029;;0 / 31;17370;2021-10-26 23:10:34:787
-5.352;7.425;0.648;7.839;5.856;0.661;1.096;2.216;-0.351;-0.377;0.041;-0.2;34.0;6.6;-34.3;22.0;146.8;-36.7;-85.2;0.0;52.74;39.4689;-0.34092;69.9;NaN;;16.029;;0 / 31;17421;2021-10-26 23:10:34:838
-3.758;8.207;1.223;8.854;3.926;1.556;-0.825;0.392;-0.343;-0.578;0.44;-0.482;34.0;6.0;-35.2;20.8;149.6;-26.5;-84.9;0.0;52.74;39.4689;-0.34092;69.9;NaN;;16.029;;0 / 31;17471;2021-10-26 23:10:34:888
-4.095;7.97;1.967;8.519;4.396;2.073;-0.872;0.455;-1.385;-0.397;0.379;-0.167;34.0;5.7;-35.8;20.0;153.0;-24.1;-78.3;0.0;52.74;39.4689;-0.34092;69.9;NaN;;16.029;;0 / 31;17521;2021-10-26 23:10:34:938
-4.016;8.258;2.072;8.571;4.262;2.131;-0.966;0.462;-1.268;-0.378;-0.199;0.246;34.0;5.2;-37.1;18.7;155.3;-25.8;-76.0;0.0;52.74;39.4689;-0.34092;69.9;NaN;;16.029;;0 / 31;17570;2021-10-26 23:10:34:987
-4.519;9.371;1.268;8.796;4.252;0.871;-0.258;-0.807;-0.379;-0.409;-0.143;0.25;34.0;4.7;-37.6;17.8;156.1;-26.1;-79.1;0.0;52.74;39.4689;-0.34092;69.9;NaN;;16.029;;0 / 31;17621;2021-10-26 23:10:35:038
-5.644;8.715;2.254;8.121;5.128;1.982;0.681;-0.439;-0.509;-0.409;-0.143;0.25;27.0;4.0;-38.5;16.8;155.6;-29.7;-82.6;0.0;52.74;39.4689;-0.34092;69.9;NaN;;16.029;;0 / 31;17670;2021-10-26 23:10:35:087
-5.586;7.999;0.461;8.03;5.607;0.532;0.977;0.193;-0.265;-0.451;0.305;0.103;27.0;3.6;-38.8;16.6;157.4;-32.1;-75.9;0.0;52.74;39.4689;-0.34092;69.9;NaN;;16.029;;0 / 31;17721;2021-10-26 23:10:35:138
-6.915;10.098;1.409;7.992;5.593;1.01;2.305;-1.627;-0.026;-0.471;0.874;-0.109;27.0;3.0;-38.5;16.9;154.7;-33.3;-81.8;0.0;58.78;39.4689;-0.34092;69.9;NaN;;16.029;;0 / 31;17771;2021-10-26 23:10:35:188
-5.388;9.158;0.162;8.566;4.774;-0.024;0.838;-0.875;0.969;-0.542;1.067;-0.277;27.0;3.5;-37.9;17.8;152.1;-36.6;-86.5;0.0;58.78;39.4689;-0.34092;69.9;NaN;;16.029;;0 / 31;17821;2021-10-26 23:10:35:238
-1.96;8.401;-1.103;9.471;2.227;-1.221;-3.258;0.228;2.085;-0.1;1.071;0.023;27.0;4.5;-36.5;19.6;152.1;-12.0;-97.1;0.0;58.78;39.4689;-0.34092;69.9;NaN;;16.029;;0 / 31;17871;2021-10-26 23:10:35:288
-5.567;12.676;0.978;8.83;4.175;0.857;-0.205;-4.109;0.588;0.293;0.562;0.432;27.0;5.3;-35.3;21.7;149.2;-12.8;-95.2;0.0;58.78;39.4689;-0.34092;69.9;NaN;;16.029;;0 / 31;17921;2021-10-26 23:10:35:338
-2.47;10.448;3.765;9.045;1.93;3.261;-0.887;-2.645;-3.021;0.539;-0.722;0.692;27.0;6.0;-32.9;24.6;148.6;-11.3;-70.2;0.0;58.78;39.4689;-0.34092;69.9;NaN;;16.029;;0 / 31;17970;2021-10-26 23:10:35:387
-3.394;6.855;-4.267;7.331;3.998;-5.143;-2.633;1.363;0.532;0.595;-1.196;0.622;3.0;6.9;-31.3;26.6;133.0;-24.1;-125.0;0.0;58.78;39.4689;-0.34092;69.9;NaN;;16.029;;0 / 31;18021;2021-10-26 23:10:35:438
-5.419;5.857;0.306;6.766;6.958;-1.408;2.204;3.015;3.373;0.7;-0.17;-0.055;3.0;8.5;-28.5;28.8;119.7;-42.2;-122.4;0.0;57.25;39.4689;-0.34092;69.9;NaN;;16.029;;0 / 31;18070;2021-10-26 23:10:35:487
-2.97;5.421;1.304;8.605;4.271;1.973;-1.142;3.377;-1.153;0.757;0.183;-0.531;3.0;9.7;-26.8;29.7;137.5;-41.1;-81.4;0.0;57.25;39.4689;-0.34092;69.9;NaN;;16.029;;0 / 31;18120;2021-10-26 23:10:35:537
0.512;5.524;-0.543;9.744;-0.752;-0.824;-4.484;3.256;-0.02;0.899;0.185;-0.55;3.0;9.5;-26.4;30.6;128.8;4.4;-94.8;0.0;57.25;39.4689;-0.34092;69.9;NaN;;16.029;;0 / 31;18170;2021-10-26 23:10:35:587
-2.369;7.403;-1.943;8.993;3.146;-2.327;-1.733;1.131;1.708;0.899;0.185;-0.55;3.0;8.8;-27.0;30.5;131.0;-3.4;-101.6;0.0;57.25;39.4689;-0.34092;69.9;NaN;;16.029;;0 / 31;18220;2021-10-26 23:10:35:637
-8.827;8.344;-5.495;5.152;6.852;-4.76;5.4;1.639;6.023;0.899;0.185;-0.55;3.0;8.0;-27.9;30.1;123.9;-35.8;-111.1;0.0;57.25;39.4689;-0.34092;69.9;NaN;;16.029;;0 / 31;18271;2021-10-26 23:10:35:688
-9.687;7.353;-6.879;5.239;6.723;-4.86;5.14;2.235;5.267;0.793;1.656;-1.238;13.0;7.6;-28.6;29.7;107.5;-45.9;-134.4;0.0;57.25;39.4689;-0.34092;69.9;NaN;;16.029;;0 / 31;18320;2021-10-26 23:10:35:737
-6.146;8.073;-7.822;6.124;4.281;-6.349;1.691;0.961;2.614;0.195;1.891;-1.752;13.0;8.3;-29.0;28.8;126.8;-25.9;-136.0;0.0;57.25;39.4689;-0.34092;69.9;NaN;;16.029;;0 / 31;18371;2021-10-26 23:10:35:788
-6.917;14.163;3.815;8.562;3.974;2.667;0.738;-3.665;2.3;0.172;1.048;-0.869;13.0;8.6;-29.2;28.6;129.8;-25.9;-110.8;0.0;57.85;39.4689;-0.34092;69.9;NaN;;16.029;;0 / 31;18420;2021-10-26 23:10:35:837
-4.047;4.844;-1.713;6.838;6.46;-2.772;-2.159;0.037;-4.585;-0.02;-0.76;0.285;13.0;9.5;-29.4;27.9;149.9;-15.0;-59.4;0.0;57.85;39.4689;-0.34092;69.9;NaN;;16.029;;0 / 31;18471;2021-10-26 23:10:35:888
1.701;5.122;3.274;8.088;-3.84;4.008;-7.59;2.545;-5.314;-0.333;-1.759;0.969;13.0;9.7;-30.1;27.6;122.1;-52.9;-108.4;0.0;57.85;39.4689;-0.34092;69.9;NaN;;16.029;;0 / 31;18521;2021-10-26 23:10:35:938
-4.188;9.222;3.087;9.007;3.103;2.337;-3.149;-1.249;-2.681;-1.092;-2.505;1.209;13.0;9.4;-32.0;26.4;146.9;-18.4;-75.5;0.0;57.85;39.4689;-0.34092;69.9;NaN;;16.029;;0 / 31;18571;2021-10-26 23:10:35:988
-5.754;7.958;2.362;7.786;5.574;2.131;1.107;0.789;-2.447;-0.58;-1.406;0.596;13.0;8.6;-33.4;25.7;149.2;-35.6;-71.5;0.0;57.85;39.4689;-0.34092;69.9;NaN;;16.029;;0 / 31;18621;2021-10-26 23:10:36:038
-4.346;7.846;-0.275;8.71;4.477;-0.46;0.417;0.877;0.457;-0.59;-1.151;0.512;11.0;8.3;-34.2;24.9;144.4;-32.5;-85.7;0.0;57.85;39.4689;-0.34092;69.9;NaN;;16.029;;0 / 31;18671;2021-10-26 23:10:36:088
-3.566;7.645;0.605;8.835;4.233;0.474;-0.774;1.109;0.314;-0.381;-0.519;0.18;11.0;8.1;-34.9;23.9;144.4;-29.2;-92.3;0.0;57.85;39.4689;-0.34092;69.9;NaN;;16.029;;0 / 31;18721;2021-10-26 23:10:36:138
-4.751;7.922;3.03;7.848;4.348;3.96;-0.663;1.149;-3.132;-0.411;0.318;-0.275;11.0;9.0;-35.5;23.1;157.4;-26.3;-63.2;0.0;53.98;39.4689;-0.34092;69.9;NaN;;16.029;;0 / 31;18770;2021-10-26 23:10:36:187
-4.983;8.284;1.488;8.298;5.028;1.417;0.212;0.246;-0.587;-0.33;0.301;-0.119;11.0;9.5;-36.0;22.5;150.4;-29.1;-80.9;0.0;53.98;39.4689;-0.34092;69.9;NaN;;16.029;;0 / 31;18820;2021-10-26 23:10:36:237
-4.748;8.423;0.911;8.523;4.793;0.757;0.31;0.261;0.448;-0.293;0.253;-0.075;11.0;9.5;-36.4;21.8;149.6;-30.9;-85.8;0.0;53.98;39.4689;-0.34092;69.9;NaN;;16.029;;0 / 31;18871;2021-10-26 23:10:36:288
-3.564;8.375;1.594;8.902;3.84;1.494;-0.917;0.287;-1.472;-0.365;0.103;-0.052;11.0;8.9;-37.1;21.4;155.3;-23.5;-73.0;0.0;53.98;39.4689;-0.34092;69.9;NaN;;16.029;;0 / 31;18920;2021-10-26 23:10:36:337
-6.642;9.337;0.004;7.982;5.684;-0.311;1.93;-0.817;1.512;-0.179;0.251;-0.019;11.0;8.3;-37.5;21.7;150.0;-26.5;-86.5;0.0;53.98;39.4689;-0.34092;69.9;NaN;;16.029;;0 / 31;18971;2021-10-26 23:10:36:388
-5.842;8.947;0.713;8.289;5.009;1.537;1.111;-0.647;0.211;-0.098;0.438;-0.045;0.0;7.7;-38.0;22.9;148.8;-33.0;-86.2;0.0;53.98;39.4689;-0.34092;69.9;NaN;;16.029;;0 / 31;19021;2021-10-26 23:10:36:438
-5.84;10.481;1.23;8.49;4.817;0.934;1.07;-2.176;-0.664;-0.12;0.478;-0.083;0.0;7.9;-38.4;24.3;151.4;-28.4;-77.1;0.0;54.92;39.4689;-0.34092;69.9;NaN;;16.029;;0 / 31;19071;2021-10-26 23:10:36:488
-6.053;7.042;-0.222;7.628;6.158;-0.239;2.151;0.128;0.441;-0.187;0.539;-0.183;0.0;7.4;-38.0;27.7;144.2;-40.1;-86.3;0.0;54.92;39.4689;-0.34092;69.9;NaN;;16.029;;0 / 31;19121;2021-10-26 23:10:36:538
-2.436;9.411;1.326;9.428;1.954;1.872;-2.519;-0.262;-0.255;-0.059;0.018;0.02;0.0;6.1;-37.4;30.6;143.7;-24.8;-85.0;0.0;54.92;39.4689;-0.34092;69.9;NaN;;16.029;;0 / 31;19171;2021-10-26 23:10:36:588
-2.956;11.815;0.143;9.567;2.121;-0.369;-1.725;-3.197;0.182;0.394;-0.499;0.53;0.0;1.1;-35.4;36.2;133.4;-12.5;-92.2;0.0;54.92;39.4689;-0.34092;69.9;NaN;;16.029;;0 / 31;19221;2021-10-26 23:10:36:638
-1.436;9.77;-0.007;9.735;1.178;0.177;-2.79;-1.173;1.125;0.394;-0.499;0.53;0.0;-2.8;-34.3;39.1;129.8;-10.6;-98.7;0.0;54.92;39.4689;-0.34092;69.9;NaN;;16.029;;0 / 31;19271;2021-10-26 23:10:36:688
-3.736;7.128;-1.677;8.576;4.539;-1.441;-0.092;1.831;2.461;0.664;-0.448;1.088;0.0;-7.8;-32.8;41.9;128.0;-7.3;-93.7;0.0;54.92;39.4689;-0.34092;69.9;NaN;;16.029;;0 / 31;19321;2021-10-26 23:10:36:738
-2.881;6.56;-0.713;8.94;3.936;-0.895;-0.074;2.554;0.306;0.631;0.613;0.464;0.0;-9.7;-32.8;41.5;118.8;-27.6;-99.5;0.0;54.92;39.4689;-0.34092;69.9;NaN;;16.029;;0 / 31;19370;2021-10-26 23:10:36:787
-1.019;6.706;-0.73;9.668;1.341;-0.948;-2.251;2.456;1.02;0.357;0.815;0.205;0.0;-10.9;-34.1;39.4;130.0;-7.9;-95.6;0.0;56.17;39.4689;-0.34092;69.9;NaN;;16.029;;0 / 31;19421;2021-10-26 23:10:36:838
-0.684;6.429;-1.177;9.62;0.79;-1.733;-2.875;2.791;0.929;0.223;0.872;0.123;0.0;-11.8;-35.7;36.0;133.1;-6.7;-97.5;0.0;56.17;39.4689;-0.34092;69.9;NaN;;16.029;;0 / 31;19471;2021-10-26 23:10:36:888
-4.315;7.987;-2.671;8.179;4.635;-2.792;0.309;1.253;1.873;0.313;0.668;0.419;0.0;-12.1;-36.4;33.9;133.6;-15.5;-105.6;0.0;56.17;39.4689;-0.34092;69.9;NaN;;16.029;;0 / 31;19521;2021-10-26 23:10:36:938
-4.255;7.539;-3.317;7.958;4.482;-3.572;1.113;1.921;2.165;0.435;1.265;-0.081;0.0;-12.3;-37.0;30.8;133.4;-27.2;-114.2;0.0;56.17;39.4689;-0.34092;69.9;NaN;;16.029;;0 / 31;19571;2021-10-26 23:10:36:988
-6.446;9.002;-5.622;7.254;5.473;-3.692;1.828;0.415;4.132;0.211;2.146;-1.145;0.0;-12.2;-37.2;29.2;130.5;-33.9;-117.0;0.0;56.17;39.4689;-0.34092;69.9;NaN;;16.029;;0 / 31;19620;2021-10-26 23:10:37:037
-6.68;8.631;-4.485;7.302;5.502;-3.548;3.152;0.209;3.031;0.034;2.324;-1.697;4.0;-11.5;-37.1;28.4;130.0;-38.3;-127.0;0.0;56.17;39.4689;-0.34092;69.9;NaN;;16.029;;0 / 31;19670;2021-10-26 23:10:37:087
-4.866;11.561;-2.676;8.298;4.037;-3.323;0.239;0.99;1.921;-0.078;1.951;-1.37;4.0;-9.1;-36.9;27.1;138.5;-27.7;-118.3;0.0;58.9;39.4689;-0.34092;69.9;NaN;;16.029;;0 / 31;19721;2021-10-26 23:10:37:138
-4.033;10.783;2.008;8.629;4.405;1.523;1.226;-2.999;-4.433;-0.18;1.509;-0.921;4.0;-6.9;-37.0;26.2;139.8;-20.9;-97.5;0.0;58.9;39.4689;-0.34092;69.9;NaN;;16.029;;0 / 31;19771;2021-10-26 23:10:37:188
-1.984;6.651;0.617;9.376;2.533;1.355;-2.529;1.759;-2.369;-0.18;1.509;-0.921;4.0;-3.5;-37.2;24.1;143.5;-23.3;-103.8;0.0;58.9;39.4689;-0.34092;69.9;NaN;;16.029;;0 / 31;19821;2021-10-26 23:10:37:238
-2.841;8.942;1.294;9.261;3.017;1.135;-2.812;0.379;-2.314;-0.18;1.509;-0.921;4.0;-1.6;-37.3;22.7;147.5;-9.8;-90.1;0.0;58.9;39.4689;-0.34092;69.9;NaN;;16.029;;0 / 31;19870;2021-10-26 23:10:37:287
-2.238;7.307;3.662;8.26;3.079;4.3;-1.738;2.136;-4.583;-0.616;-1.39;0.676;4.0;-1.0;-37.6;21.3;149.2;-18.0;-77.6;0.0;58.9;39.4689;-0.34092;69.9;NaN;;16.029;;0 / 31;19921;2021-10-26 23:10:37:338
-5.739;10.067;0.095;8.648;4.606;0.397;4.089;-1.33;-0.39;-0.658;-1.24;0.284;4.0;-0.5;-37.6;19.4;150.4;-28.0;-87.4;0.0;58.9;39.4689;-0.34092;69.9;NaN;;16.029;;0 / 31;19970;2021-10-26 23:10:37:387
-3.899;8.375;0.967;8.801;4.204;1.025;-0.345;0.168;-0.725;-0.577;-0.662;-0.016;5.0;-0.1;-37.8;18.0;152.9;-23.7;-87.3;0.0;58.9;39.4689;-0.34092;69.9;NaN;;16.029;;0 / 31;20021;2021-10-26 23:10:37:438
-4.114;8.667;2.041;8.638;4.228;1.925;-0.427;-0.171;-1.268;-0.52;-0.346;-0.101;5.0;0.4;-37.9;16.5;154.7;-24.6;-81.4;0.0;55.22;39.4689;-0.34092;69.9;NaN;;16.029;;0 / 31;20071;2021-10-26 23:10:37:488
-3.152;10.632;1.962;8.916;3.567;1.987;0.508;-0.846;-2.873;-0.408;-0.398;0.091;5.0;1.5;-38.3;15.2;157.1;-20.5;-80.2;0.0;55.22;39.4689;-0.34092;69.9;NaN;;16.029;;0 / 31;20121;2021-10-26 23:10:37:538
-1.196;10.316;2.099;9.539;1.226;1.93;-2.901;-1.181;-1.361;-0.336;-0.61;0.259;5.0;1.7;-38.3;13.6;160.8;-10.7;-78.7;0.0;55.22;39.4689;-0.34092;69.9;NaN;;16.029;;0 / 31;20170;2021-10-26 23:10:37:587
-1.914;9.926;2.254;8.993;2.648;2.883;-1.89;-0.804;-1.142;-0.196;-1.208;0.559;5.0;2.0;-38.0;13.1;161.8;-10.7;-80.6;0.0;55.22;39.4689;-0.34092;69.9;NaN;;16.029;;0 / 31;20221;2021-10-26 23:10:37:638
-6.805;11.599;0.698;8.413;4.918;1.111;1.734;-1.016;-2.133;-0.22;-1.04;0.43;5.0;2.6;-36.9;12.1;163.2;-26.5;-71.8;0.0;55.22;39.4689;-0.34092;69.9;NaN;;16.029;;0 / 31;20270;2021-10-26 23:10:37:687
-5.644;12.391;2.767;8.6;4.061;2.399;2.443;-2.885;-1.435;-0.223;-0.088;0.04;13.0;3.5;-36.6;11.4;160.6;-28.1;-90.0;0.0;55.22;39.4689;-0.34092;69.9;NaN;;16.029;;0 / 31;20321;2021-10-26 23:10:37:738
-4.526;11.522;4.313;8.677;3.323;3.136;1.209;-1.207;-2.778;-0.483;0.12;-0.265;13.0;4.1;-36.9;9.4;169.2;-19.8;-70.1;0.0;52.46;39.4689;-0.34092;69.9;NaN;;16.029;;0 / 31;20370;2021-10-26 23:10:37:787
-1.74;9.174;6.745;7.8;1.867;5.641;-0.116;-1.527;-3.342;-0.496;-0.275;-0.197;13.0;4.5;-36.9;8.0;174.7;-11.0;-54.1;0.0;52.46;39.4689;-0.34092;69.9;NaN;;16.029;;0 / 31;20420;2021-10-26 23:10:37:837
-1.421;12.53;7.032;7.973;1.724;5.444;-0.747;-3.346;-4.501;-0.69;-1.183;-0.034;13.0;4.8;-37.2;5.5;175.3;-12.7;-63.4;5.0;52.46;39.4689;-0.34092;69.9;NaN;;16.029;;0 / 31;20471;2021-10-26 23:10:37:888
-0.955;6.11;6.355;6.823;1.001;6.972;-2.746;2.065;-3.012;-0.802;-1.762;0.107;13.0;5.2;-37.4;4.9;178.4;-2.7;-53.5;5.0;52.46;39.4689;-0.34092;69.9;NaN;;16.029;;0 / 31;20520;2021-10-26 23:10:37:937
-1.046;7.267;3.839;8.456;1.848;4.606;-1.808;2.0;0.504;-0.941;-1.816;0.073;13.0;6.2;-37.8;4.3;179.3;-7.4;-60.3;5.0;52.46;39.4689;-0.34092;69.9;NaN;;16.029;;0 / 31;20571;2021-10-26 23:10:37:988
-2.269;2.838;5.498;5.737;1.489;7.815;-1.636;5.005;-0.651;-0.983;-1.537;-0.042;13.0;7.7;-37.9;3.6;185.4;-9.3;-39.1;5.0;52.46;39.4689;-0.34092;69.9;NaN;;16.029;;0 / 31;20620;2021-10-26 23:10:38:037
-2.053;6.651;4.969;7.91;1.958;5.454;-0.377;1.606;0.088;-1.003;-1.425;-0.144;31.0;10.5;-37.6;1.2;188.4;-4.6;-39.2;5.0;52.46;39.4689;-0.34092;69.9;NaN;;16.029;;0 / 31;20671;2021-10-26 23:10:38:088
-0.033;3.322;4.5;5.722;0.594;7.944;-2.273;4.601;0.963;-0.664;-1.357;-0.323;31.0;13.0;-36.9;-1.0;191.6;-5.0;-50.1;5.0;53.95;39.4689;-0.34092;69.9;NaN;;16.029;;0 / 31;20720;2021-10-26 23:10:38:137
-1.263;4.789;2.747;7.69;1.676;5.847;-2.655;3.702;2.148;-0.519;-1.532;-0.556;31.0;16.2;-35.4;-4.8;200.7;-9.8;-52.8;5.0;53.95;39.4689;-0.34092;69.9;NaN;;16.029;;0 / 31;20770;2021-10-26 23:10:38:187
-0.021;4.313;4.832;3.452;-2.758;8.758;-1.251;3.406;1.49;-0.28;-1.528;-0.651;31.0;18.2;-34.0;-7.1;206.8;-6.5;-46.0;5.0;53.95;39.4689;-0.34092;69.9;NaN;;16.029;;0 / 31;20820;2021-10-26 23:10:38:237
-0.323;5.481;9.94;3.73;1.068;9.007;-1.469;2.882;6.377;-0.558;-1.5;-0.789;31.0;19.6;-32.4;-10.4;214.7;-21.7;-23.3;5.0;53.95;39.4689;-0.34092;69.9;NaN;;16.029;;0 / 31;20870;2021-10-26 23:10:38:287
-0.435;3.195;8.626;3.783;0.268;9.045;-0.559;3.156;-2.382;-0.866;-1.0;-0.943;31.0;20.1;-31.7;-12.2;217.2;-16.9;-23.0;5.0;53.95;39.4689;-0.34092;69.9;NaN;;16.029;;0 / 31;20921;2021-10-26 23:10:38:338
-1.249;4.425;7.149;5.42;1.255;8.078;-0.759;2.622;-0.307;-1.298;-1.034;-0.873;31.0;18.7;-32.3;-13.7;216.7;-7.3;-33.9;5.0;53.95;39.4689;-0.34092;69.9;NaN;;16.029;;0 / 31;20970;2021-10-26 23:10:38:387
-0.876;6.323;8.423;6.072;1.077;7.628;-0.471;0.034;-0.872;-0.912;-0.936;-0.794;40.0;17.1;-33.1;-14.3;213.8;-3.3;-35.9;5.0;44.69;39.4689;-0.34092;69.9;NaN;;16.029;;0 / 31;21021;2021-10-26 23:10:38:438
0.732;4.962;9.474;4.535;-0.69;8.672;-1.475;0.885;-1.172;-0.616;-0.908;-0.708;40.0;14.6;-34.9;-14.3;211.6;0.4;-30.7;5.0;44.69;39.4689;-0.34092;69.9;NaN;;16.029;;0 / 31;21070;2021-10-26 23:10:38:487
-0.081;5.282;10.632;4.673;0.215;8.619;-1.005;-0.122;-2.265;-0.325;-0.885;-0.458;40.0;13.1;-35.5;-14.3;208.6;0.7;-29.5;5.0;44.69;39.4689;-0.34092;69.9;NaN;;16.029;;0 / 31;21121;2021-10-26 23:10:38:538
1.206;4.219;8.873;4.19;-0.934;8.815;-1.227;0.857;-2.664;-0.468;-0.609;0.004;40.0;11.3;-36.7;-14.6;203.5;5.5;-25.4;5.0;44.69;39.4689;-0.34092;69.9;NaN;;16.029;;0 / 31;21170;2021-10-26 23:10:38:587
0.888;4.789;7.243;5.124;-0.881;8.317;-1.458;0.449;1.227;-0.513;-0.413;0.454;40.0;10.1;-36.9;-14.9;203.6;3.3;-31.3;5.0;44.69;39.4689;-0.34092;69.9;NaN;;16.029;;0 / 31;21220;2021-10-26 23:10:38:637
0.45;3.698;9.971;3.328;-0.316;9.218;-1.161;1.264;-1.201;-0.457;-0.278;0.567;40.0;9.5;-37.0;-15.2;201.9;4.0;-23.3;0.0;44.69;39.4689;-0.34092;69.9;NaN;;16.029;;0 / 31;21271;2021-10-26 23:10:38:688
0.229;4.138;8.791;4.152;-0.373;8.878;-0.543;0.823;-0.816;-0.512;-0.124;0.65;43.0;9.5;-36.4;-15.1;200.2;-0.4;-20.0;0.0;44.69;39.4689;-0.34092;69.9;NaN;;16.029;;0 / 31;21320;2021-10-26 23:10:38:737