sep=;
ACCELEROMETER X (m/s²);ACCELEROMETER Y (m/s²);ACCELEROMETER Z (m/s²);GRAVITY X (m/s²);GRAVITY Y (m/s²);GRAVITY Z (m/s²);LINEAR ACCELERATION X (m/s²);LINEAR ACCELERATION Y (m/s²);LINEAR ACCELERATION Z (m/s²);GYROSCOPE X (rad/s);GYROSCOPE Y (rad/s);GYROSCOPE Z (rad/s);LIGHT (lux);MAGNETIC FIELD X (μT);MAGNETIC FIELD Y (μT);MAGNETIC FIELD Z (μT);ORIENTATION Z (azimuth °);ORIENTATION X (pitch °);ORIENTATION Y (roll °);PROXIMITY (m);SOUND LEVEL (dB);LOCATION Latitude : ;LOCATION Longitude : ;LOCATION Altitude ( m);LOCATION Altitude-google ( m);LOCATION Speed ( Kmh);LOCATION Accuracy ( m);LOCATION ORIENTATION (°);Satellites in range;Time since start in ms ;YYYY-MO-DD HH-MI-SS_SSS
-5.306;6.63;-2.245;7.475;5.77;-2.658;-4.543;2.064;2.274;0.946;1.47;-0.775;29.0;34.8;-6.0;-13.9;183.1;-36.0;-109.6;5.0;29.93;39.46891;-0.34094;69.4;NaN;;13.8;;0 / 31;14;2021-10-26 23:10:43:930
-7.501;12.954;-1.725;8.495;4.817;-0.924;1.952;-5.562;5.584;0.896;2.166;0.211;29.0;35.4;-4.5;-13.5;181.7;-30.6;-110.8;5.0;50.61;39.46891;-0.34094;69.4;NaN;;13.8;;0 / 31;64;2021-10-26 23:10:43:980
-6.264;9.205;5.333;7.183;4.822;4.616;0.16;-3.469;-6.707;-0.868;1.917;0.704;29.0;34.2;-2.8;-15.5;247.4;-25.9;-58.2;5.0;50.61;39.46891;-0.34094;69.4;NaN;;13.8;;0 / 31;114;2021-10-26 23:10:44:030
-6.12;9.335;4.538;7.259;5.071;4.219;0.007;-3.233;-3.545;-1.247;1.59;0.669;22.0;31.8;-1.3;-18.5;245.1;-29.6;-66.5;5.0;50.61;39.46891;-0.34094;69.4;NaN;;13.8;;0 / 31;163;2021-10-26 23:10:44:079
-8.195;1.539;6.041;1.92;5.602;7.815;1.868;5.297;-9.474;-1.939;1.34;0.481;22.0;25.3;1.0;-26.1;291.2;-34.8;-13.8;5.0;50.61;39.46891;-0.34094;69.4;NaN;;13.8;;0 / 31;213;2021-10-26 23:10:44:129
-6.783;0.122;4.631;0.081;8.236;5.325;1.372;7.631;-2.557;-1.939;1.34;0.481;22.0;20.5;2.0;-30.8;289.0;-16.8;-12.4;5.0;50.61;39.46891;-0.34094;69.4;NaN;;13.8;;0 / 31;263;2021-10-26 23:10:44:179
-3.348;1.206;7.305;1.484;4.19;8.744;-1.842;6.196;-6.138;-1.939;1.34;0.481;22.0;12.5;4.1;-35.2;320.0;-30.9;-2.6;5.0;50.61;39.46891;-0.34094;69.4;NaN;;13.8;;0 / 31;313;2021-10-26 23:10:44:229
-2.554;2.068;7.573;2.351;3.136;8.988;-3.763;3.738;-2.772;-2.287;-2.003;-2.05;22.0;7.7;5.3;-36.6;311.5;-22.1;-12.0;5.0;47.77;39.46891;-0.34094;69.4;NaN;;13.8;;0 / 31;364;2021-10-26 23:10:44:280
-2.178;1.632;9.469;1.781;2.059;9.424;-3.743;3.904;-3.305;-0.715;-2.541;-2.761;22.0;2.8;6.4;-37.6;323.6;-12.1;-10.7;5.0;47.77;39.46891;-0.34094;69.4;NaN;;13.8;;0 / 31;413;2021-10-26 23:10:44:329
-0.914;5.778;10.263;4.855;0.881;8.475;-4.848;-0.165;-3.868;-0.699;-2.493;-0.725;22.0;0.1;6.8;-37.7;302.9;-5.0;-24.0;5.0;47.77;39.46891;-0.34094;69.4;NaN;;13.8;;0 / 31;463;2021-10-26 23:10:44:379
-0.655;4.94;11.853;3.658;0.469;9.084;-4.524;-1.11;-2.238;-0.407;-2.456;-0.466;30.0;-1.7;6.9;-37.6;291.0;-0.8;-32.2;5.0;47.77;39.46891;-0.34094;69.4;NaN;;13.8;;0 / 31;513;2021-10-26 23:10:44:429
0.466;8.43;8.856;6.752;-0.402;7.101;-4.235;-3.351;-2.828;0.434;-2.131;0.274;30.0;-2.2;7.1;-37.5;289.8;-0.1;-35.0;5.0;47.77;39.46891;-0.34094;69.4;NaN;;13.8;;0 / 31;564;2021-10-26 23:10:44:480
-0.27;7.192;10.993;5.382;0.321;8.193;-4.085;-3.207;-2.981;0.614;-1.868;0.502;30.0;0.5;5.5;-37.8;288.6;-1.9;-33.3;5.0;47.77;39.46891;-0.34094;69.4;NaN;;13.8;;0 / 31;614;2021-10-26 23:10:44:530
-4.715;3.363;7.544;4.554;3.519;7.939;0.056;-0.8;1.61;0.742;-1.268;0.256;30.0;3.2;3.2;-37.5;283.8;-15.7;-55.3;5.0;43.85;39.46891;-0.34094;69.4;NaN;;13.8;;0 / 31;664;2021-10-26 23:10:44:580
-9.304;1.907;0.811;3.084;9.232;1.188;5.084;2.215;5.065;0.886;-0.737;-0.703;30.0;6.6;0.2;-37.0;313.3;-60.0;-31.8;5.0;43.85;39.46891;-0.34094;69.4;NaN;;13.8;;0 / 31;714;2021-10-26 23:10:44:630
-10.01;-0.124;-0.026;-1.087;9.596;1.719;8.471;8.279;4.268;0.971;-0.253;-1.473;30.0;11.9;-5.4;-35.1;323.0;-77.7;-20.0;5.0;43.85;39.46891;-0.34094;69.4;NaN;;13.8;;0 / 31;764;2021-10-26 23:10:44:680
-8.408;2.817;0.308;1.839;9.529;1.408;4.335;3.239;5.507;0.971;-0.253;-1.473;30.0;14.8;-7.4;-33.7;288.6;-87.5;-50.0;5.0;43.85;39.46891;-0.34094;69.4;NaN;;13.8;;0 / 31;813;2021-10-26 23:10:44:729
-3.161;8.198;-6.431;8.217;3.112;-4.357;-2.073;0.968;13.184;3.011;2.413;-2.64;47.0;18.4;-7.9;-31.7;228.8;-18.5;-117.9;5.0;43.85;39.46891;-0.34094;69.4;NaN;;13.8;;0 / 31;864;2021-10-26 23:10:44:780
-4.421;4.133;6.647;3.017;3.486;8.657;-2.372;0.834;-2.239;2.047;1.602;-0.935;47.0;22.9;-7.1;-29.2;265.4;-36.0;-45.4;5.0;43.85;39.46891;-0.34094;69.4;NaN;;13.8;;0 / 31;914;2021-10-26 23:10:44:830
-4.873;7.422;-1.278;7.59;6.067;-1.317;-3.123;-0.815;2.31;-0.442;0.894;1.436;47.0;25.5;-6.9;-27.0;271.6;-30.0;-27.1;5.0;43.85;39.46891;-0.34094;69.4;NaN;;13.8;;0 / 31;964;2021-10-26 23:10:44:880
-12.109;2.685;-5.991;0.948;8.95;-3.888;3.138;1.779;-2.429;-1.902;0.665;1.485;47.0;29.7;-7.3;-23.0;141.5;-65.9;-166.3;5.0;55.52;39.46891;-0.34094;69.4;NaN;;13.8;;0 / 31;1014;2021-10-26 23:10:44:930
1.828;14.905;1.409;9.634;-1.69;0.699;-2.886;-6.472;6.15;-0.897;1.247;0.848;47.0;31.7;-8.4;-21.1;220.4;-17.5;-99.4;5.0;55.52;39.46891;-0.34094;69.4;NaN;;13.8;;0 / 31;1064;2021-10-26 23:10:44:980
-5.893;9.641;0.189;8.964;1.978;3.457;-2.989;-6.329;-1.275;-0.291;2.089;1.692;47.0;33.4;-9.8;-18.5;219.9;-15.9;-95.1;5.0;55.52;39.46891;-0.34094;69.4;NaN;;13.8;;0 / 31;1113;2021-10-26 23:10:45:029
-2.678;10.254;3.817;9.653;1.609;0.632;-10.403;-3.008;6.012;0.016;2.493;2.409;20.0;35.0;-9.7;-16.5;307.3;18.2;-110.8;0.0;55.52;39.46891;-0.34094;69.4;NaN;;13.8;;0 / 31;1163;2021-10-26 23:10:45:079
-16.71;11.053;-7.13;6.062;7.087;-3.031;8.075;-6.786;5.403;0.079;2.352;2.251;20.0;35.5;-8.9;-16.6;240.4;-8.5;-76.7;0.0;55.52;39.46891;-0.34094;69.4;NaN;;13.8;;0 / 31;1214;2021-10-26 23:10:45:130
-12.569;7.587;-1.194;6.972;6.306;-2.792;6.187;0.093;2.814;1.112;1.281;-0.239;20.0;33.7;-8.8;-20.1;191.2;-55.9;-109.8;0.0;55.52;39.46891;-0.34094;69.4;NaN;;13.8;;0 / 31;1263;2021-10-26 23:10:45:179
1.692;1.35;-6.005;1.834;-3.687;-8.902;2.394;5.783;3.788;1.739;0.423;-1.232;20.0;31.9;-12.2;-22.0;199.5;-48.0;-105.7;0.0;55.52;39.46891;-0.34094;69.4;NaN;;13.8;;0 / 31;1313;2021-10-26 23:10:45:229
5.206;11.467;-7.025;7.719;-3.572;-4.889;-9.738;-1.664;1.071;1.889;0.566;-0.387;20.0;29.2;-21.7;-20.5;240.4;12.5;-46.7;0.0;62.67;39.46891;-0.34094;69.4;NaN;;13.8;;0 / 31;1363;2021-10-26 23:10:45:279
3.03;22.035;-3.568;9.38;-0.603;-2.787;-9.977;-13.281;7.215;0.904;1.515;2.711;20.0;28.1;-29.1;-17.1;189.2;17.9;-116.3;0.0;62.67;39.46891;-0.34094;69.4;NaN;;13.8;;0 / 31;1413;2021-10-26 23:10:45:329
-8.43;18.057;-7.748;8.303;3.84;-3.529;5.425;-11.877;6.582;0.825;1.11;2.424;20.0;29.5;-35.2;-11.9;195.8;-24.6;-91.6;0.0;62.67;39.46891;-0.34094;69.4;NaN;;13.8;;0 / 31;1464;2021-10-26 23:10:45:380
-6.027;5.356;2.115;0.101;8.729;4.468;2.204;2.687;-3.855;0.622;0.364;1.23;3.0;32.6;-34.0;-7.3;208.6;-49.3;-60.1;0.0;62.67;39.46891;-0.34094;69.4;NaN;;13.8;;0 / 31;1514;2021-10-26 23:10:45:430
-3.415;-3.683;-5.756;-4.951;3.95;-7.489;1.795;11.4;-0.721;0.67;-0.727;0.145;3.0;34.9;-30.7;-5.4;124.9;-23.8;146.5;0.0;62.67;39.46891;-0.34094;69.4;NaN;;13.8;;0 / 31;1564;2021-10-26 23:10:45:480
3.875;-5.438;1.125;-7.039;-5.65;3.836;-6.599;13.601;-1.822;3.274;-2.879;-0.89;3.0;35.2;-28.6;-3.7;156.7;17.9;110.6;0.0;62.67;39.46891;-0.34094;69.4;NaN;;13.8;;0 / 31;1614;2021-10-26 23:10:45:530
6.369;0.033;22.794;0.201;-2.519;9.476;-13.684;2.864;-26.438;6.88;-4.083;-2.201;3.0;31.1;-28.6;-5.5;216.1;37.0;32.7;0.0;62.02;39.46891;-0.34094;69.4;NaN;;13.8;;0 / 31;1664;2021-10-26 23:10:45:580
2.697;3.76;-0.306;8.317;-5.181;-0.297;-7.57;-3.108;-8.445;5.162;8.279;-0.263;3.0;27.2;-30.7;-7.5;135.1;19.5;-167.2;0.0;62.02;39.46891;-0.34094;69.4;NaN;;13.8;;0 / 31;1713;2021-10-26 23:10:45:629
-0.531;21.399;19.055;7.159;1.039;6.622;-1.119;-16.321;-27.869;-7.059;7.015;3.004;3.0;24.7;-31.4;-10.0;213.5;0.3;-62.4;0.0;62.02;39.46891;-0.34094;69.4;NaN;;13.8;;0 / 31;1763;2021-10-26 23:10:45:679
-3.6;29.934;2.779;9.754;1.02;-0.278;3.658;-22.983;-6.091;-7.082;4.832;-0.994;3.0;22.6;-31.3;-12.6;216.1;-9.4;-52.3;0.0;62.02;39.46891;-0.34094;69.4;NaN;;13.8;;0 / 31;1813;2021-10-26 23:10:45:729
-11.575;19.86;15.917;3.701;1.973;8.863;9.926;-8.79;-46.041;-7.082;4.832;-0.994;0.0;21.1;-30.7;-15.8;153.9;-8.7;-161.8;0.0;62.02;39.46891;-0.34094;69.4;NaN;;13.8;;0 / 31;1863;2021-10-26 23:10:45:779
-8.073;3.36;-1.225;2.662;9.208;-2.078;8.17;6.913;-1.363;-4.671;2.065;-1.729;0.0;16.7;-29.0;-21.3;205.9;-33.5;-101.2;0.0;62.02;39.46891;-0.34094;69.4;NaN;;13.8;;0 / 31;1913;2021-10-26 23:10:45:829
-3.477;-2.039;-0.945;-3.903;7.638;-4.755;2.509;11.296;-0.941;0.674;-5.424;-1.133;0.0;14.9;-28.2;-23.6;131.1;-54.4;140.1;0.0;62.02;39.46891;-0.34094;69.4;NaN;;13.8;;0 / 31;1964;2021-10-26 23:10:45:880
0.521;-0.457;1.376;-3.409;-6.167;6.819;-2.565;8.534;-4.038;2.116;-7.659;-1.997;0.0;12.1;-27.6;-27.1;219.8;1.0;-24.8;0.0;60.82;39.46891;-0.34094;69.4;NaN;;13.8;;0 / 31;2013;2021-10-26 23:10:45:929
1.402;-1.735;-2.455;-3.026;-5.243;-7.719;-4.96;9.775;-3.269;6.011;-3.354;-3.999;0.0;12.7;-28.3;-26.5;134.0;-9.6;86.9;0.0;60.82;39.46891;-0.34094;69.4;NaN;;13.8;;0 / 31;2064;2021-10-26 23:10:45:980
0.426;11.824;-2.779;9.658;0.091;-1.69;-8.289;-0.742;1.155;4.005;2.895;4.393;0.0;13.9;-30.0;-24.7;216.4;-0.5;-99.9;0.0;60.82;39.46891;-0.34094;69.4;NaN;;13.8;;0 / 31;2114;2021-10-26 23:10:46:030
-34.42;41.879;-1.448;7.283;6.565;-0.105;22.181;-34.548;-0.36;-1.682;-1.552;1.243;0.0;15.5;-30.4;-23.2;208.8;-27.7;-100.5;0.0;60.82;39.46891;-0.34094;69.4;NaN;;13.8;;0 / 31;2164;2021-10-26 23:10:46:080
-8.545;8.7;-5.711;6.048;6.455;-4.238;10.282;-11.051;1.429;-1.064;-2.202;0.428;0.0;20.0;-29.1;-21.4;205.7;-37.0;-101.6;0.0;60.82;39.46891;-0.34094;69.4;NaN;;13.8;;0 / 31;2213;2021-10-26 23:10:46:129
-4.861;1.445;0.033;2.605;9.452;0.215;0.708;6.268;-4.244;-0.615;-2.046;-0.13;0.0;23.6;-27.4;-19.9;179.0;-53.8;-135.0;0.0;60.82;39.46891;-0.34094;69.4;NaN;;13.8;;0 / 31;2264;2021-10-26 23:10:46:180
2.846;-5.737;5.146;-6.474;-3.654;6.397;-5.259;10.319;-3.999;-0.291;-1.979;-0.663;0.0;28.4;-26.0;-18.7;189.6;21.9;45.3;0.0;58.25;39.46891;-0.34094;69.4;NaN;;13.8;;0 / 31;2313;2021-10-26 23:10:46:229
15.297;-4.208;15.07;-1.618;-7.312;6.33;-22.992;9.176;-16.851;0.715;-4.256;-1.603;0.0;28.7;-26.9;-18.7;207.5;37.1;21.4;0.0;58.25;39.46891;-0.34094;69.4;NaN;;13.8;;0 / 31;2363;2021-10-26 23:10:46:279
0.572;-1.328;-22.44;-0.201;0.469;-9.792;2.732;5.82;74.638;4.624;8.814;-1.694;0.0;27.1;-30.5;-17.0;126.6;21.2;162.5;0.0;58.25;39.46891;-0.34094;69.4;NaN;;13.8;;0 / 31;2413;2021-10-26 23:10:46:329
12.315;10.263;19.627;4.113;-4.286;7.8;-14.653;-4.786;-19.67;1.807;8.758;7.027;0.0;25.1;-32.6;-15.7;192.7;19.4;41.3;0.0;58.25;39.46891;-0.34094;69.4;NaN;;13.8;;0 / 31;2464;2021-10-26 23:10:46:380
-10.249;27.107;12.487;8.624;3.127;3.467;2.689;-15.374;-24.836;-3.894;6.443;2.917;0.0;23.9;-32.0;-14.3;218.2;-11.3;-50.0;0.0;58.25;39.46891;-0.34094;69.4;NaN;;13.8;;0 / 31;2513;2021-10-26 23:10:46:429
-8.08;29.269;-78.432;2.964;0.747;-9.318;4.157;-27.615;-3.598;-6.979;5.636;-0.802;0.0;24.2;-30.0;-13.5;204.2;-9.9;-87.4;0.0;58.25;39.46891;-0.34094;69.4;NaN;;13.8;;0 / 31;2564;2021-10-26 23:10:46:480
-7.932;16.808;-10.129;9.294;2.686;1.59;-4.441;-11.11;-13.295;-5.453;4.086;-0.892;0.0;22.0;-27.8;-17.0;212.5;-15.9;-80.3;0.0;58.25;39.46891;-0.34094;69.4;NaN;;13.8;;0 / 31;2614;2021-10-26 23:10:46:530
-7.659;0.313;-3.327;-0.259;9.653;-1.709;6.416;7.93;1.401;-2.638;-0.414;-1.326;0.0;17.6;-27.0;-19.5;219.7;-21.7;-70.0;0.0;62.84;39.46891;-0.34094;69.4;NaN;;13.8;;0 / 31;2663;2021-10-26 23:10:46:579
-3.825;-2.783;-2.494;-5.195;6.642;-5.009;0.413;10.695;-3.255;-1.666;-1.541;-1.157;0.0;11.9;-27.7;-22.3;136.1;-42.6;134.0;0.0;62.84;39.46891;-0.34094;69.4;NaN;;13.8;;0 / 31;2714;2021-10-26 23:10:46:630
-0.311;-5.603;-0.665;-9.5;0.211;-2.418;-2.624;14.061;-1.415;4.109;-4.603;-2.412;0.0;10.7;-28.5;-22.4;141.4;-7.3;132.4;0.0;62.84;39.46891;-0.34094;69.4;NaN;;13.8;;0 / 31;2763;2021-10-26 23:10:46:679
2.834;1.12;-2.896;3.275;-4.999;-7.776;-5.778;11.166;-7.548;6.869;-2.688;-6.899;0.0;9.4;-29.4;-22.1;149.7;-2.9;67.1;0.0;62.84;39.46891;-0.34094;69.4;NaN;;13.8;;0 / 31;2813;2021-10-26 23:10:46:729
-8.198;11.805;-5.941;7.652;5.526;-2.667;0.188;-7.101;-1.232;4.242;0.994;-0.186;0.0;9.7;-30.5;-21.1;189.2;-2.4;-145.5;0.0;62.84;39.46891;-0.34094;69.4;NaN;;13.8;;0 / 31;2864;2021-10-26 23:10:46:780
-25.552;46.57;-0.904;8.61;4.693;-0.254;23.362;-42.165;-6.56;4.242;0.994;-0.186;0.0;12.8;-29.8;-19.4;209.5;-28.6;-91.7;0.0;62.84;39.46891;-0.34094;69.4;NaN;;13.8;;0 / 31;2914;2021-10-26 23:10:46:830
-6.395;7.729;-0.421;7.302;6.45;-1.125;-0.636;-1.444;-3.789;4.242;0.994;-0.186;0.0;17.2;-28.7;-18.3;213.2;-32.0;-79.6;0.0;60.23;39.46891;-0.34094;69.4;NaN;;13.8;;0 / 31;2964;2021-10-26 23:10:46:880
-3.564;0.076;-0.959;-0.373;9.486;-2.476;-2.306;4.982;-2.063;-0.961;-1.787;1.43;0.0;23.0;-26.3;-16.9;167.3;-47.0;-147.1;0.0;60.23;39.46891;-0.34094;69.4;NaN;;13.8;;0 / 31;3013;2021-10-26 23:10:46:929
1.661;-5.017;0.327;-9.098;-3.539;0.962;-7.752;11.471;-3.341;-0.932;-1.263;0.514;0.0;24.5;-25.8;-16.7;118.6;-30.4;107.5;0.0;60.23;39.46891;-0.34094;69.4;NaN;;13.8;;0 / 31;3063;2021-10-26 23:10:46:979
10.52;-2.774;6.359;-2.241;-8.097;5.057;-16.969;9.252;-13.919;5.357;-5.674;-8.453;0.0;22.9;-28.1;-18.1;202.5;26.4;24.6;0.0;60.23;39.46891;-0.34094;69.4;NaN;;13.8;;0 / 31;3114;2021-10-26 23:10:47:030
0.445;4.047;-72.84;0.479;-0.053;-9.797;-17.62;1.689;-6.404;3.092;10.177;1.203;0.0;20.3;-30.7;-19.0;206.4;49.0;11.0;0.0;60.23;39.46891;-0.34094;69.4;NaN;;13.8;;0 / 31;3163;2021-10-26 23:10:47:079
7.817;6.611;11.872;4.286;-4.199;7.757;-12.814;-2.272;-13.324;2.162;9.141;3.633;0.0;16.1;-35.2;-21.1;214.5;30.8;-29.6;0.0;60.23;39.46891;-0.34094;69.4;NaN;;13.8;;0 / 31;3214;2021-10-26 23:10:47:130
-3.906;24.91;7.824;8.983;0.876;3.84;-3.431;-14.077;-13.906;-2.605;5.254;2.931;0.0;15.7;-36.1;-21.9;217.2;5.4;-54.2;0.0;60.93;39.46891;-0.34094;69.4;NaN;;13.8;;0 / 31;3264;2021-10-26 23:10:47:180
-7.724;37.199;3.705;9.5;2.107;1.216;5.782;-29.324;-17.249;-4.618;1.982;1.025;0.0;17.6;-35.4;-21.7;215.2;-13.9;-74.8;0.0;60.93;39.46891;-0.34094;69.4;NaN;;13.8;;0 / 31;3314;2021-10-26 23:10:47:230
-6.879;15.383;-35.473;4.659;1.729;-8.456;-0.467;-12.238;-33.599;-6.115;3.698;0.079;0.0;19.0;-31.5;-25.0;165.5;-2.3;-157.7;0.0;60.93;39.46891;-0.34094;69.4;NaN;;13.8;;0 / 31;3364;2021-10-26 23:10:47:280
-6.845;2.692;-3.59;0.148;7.532;-6.282;4.936;-0.939;-10.435;-3.91;-0.136;-0.231;0.0;16.0;-29.5;-26.8;174.8;-10.2;-151.1;0.0;60.93;39.46891;-0.34094;69.4;NaN;;13.8;;0 / 31;3413;2021-10-26 23:10:47:329
-1.543;-1.074;0.794;-6.469;7.312;0.939;2.137;10.673;-1.967;-1.845;-1.703;-0.401;0.0;8.3;-28.2;-29.0;147.0;-65.6;152.5;0.0;60.93;39.46891;-0.34094;69.4;NaN;;13.8;;0 / 31;3463;2021-10-26 23:10:47:379
-3.889;-4.581;-0.66;-7.479;6.158;-1.532;0.586;13.046;-1.199;0.525;-4.828;-2.108;0.0;2.0;-28.9;-28.9;126.7;-45.2;102.5;0.0;60.93;39.46891;-0.34094;69.4;NaN;;13.8;;0 / 31;3514;2021-10-26 23:10:47:430
0.734;-1.481;0.215;-8.241;-4.994;1.829;-2.154;11.519;-3.514;4.956;-1.399;-6.566;0.0;2.5;-29.3;-27.1;132.9;-34.7;101.3;0.0;62.86;39.46891;-0.34094;69.4;NaN;;13.8;;0 / 31;3563;2021-10-26 23:10:47:479
1.321;7.879;-5.021;8.653;0.115;-4.621;-9.732;-0.122;-1.136;4.133;0.339;-5.772;0.0;3.8;-30.4;-24.3;212.6;-0.7;-118.1;0.0;62.86;39.46891;-0.34094;69.4;NaN;;13.8;;0 / 31;3614;2021-10-26 23:10:47:530
-29.07;49.457;-1.014;8.341;5.157;-0.259;20.416;-43.386;-5.053;-1.284;-1.476;2.914;0.0;5.3;-31.0;-22.3;215.8;-25.2;-91.1;0.0;62.86;39.46891;-0.34094;69.4;NaN;;13.8;;0 / 31;3663;2021-10-26 23:10:47:579
-6.357;8.162;-1.831;6.833;6.292;-3.141;0.095;-0.651;-1.938;-1.349;-1.589;2.585;0.0;7.9;-30.8;-19.8;215.2;-27.7;-87.3;0.0;62.86;39.46891;-0.34094;69.4;NaN;;13.8;;0 / 31;3714;2021-10-26 23:10:47:630
-4.016;1.685;0.217;3.558;9.045;1.302;-1.651;5.294;-3.347;-0.64;-1.585;1.444;0.0;10.6;-30.2;-18.4;192.7;-42.3;-132.0;0.0;62.86;39.46891;-0.34094;69.4;NaN;;13.8;;0 / 31;3764;2021-10-26 23:10:47:680
0.548;-3.535;-0.272;-9.438;-2.509;-0.934;-4.406;9.852;-2.389;-0.346;-2.04;0.62;0.0;13.0;-29.2;-17.8;317.4;-78.4;2.6;0.0;62.86;39.46891;-0.34094;69.4;NaN;;13.8;;0 / 31;3813;2021-10-26 23:10:47:729
10.804;-2.685;9.567;-1.781;-7.465;6.105;-17.463;10.085;-13.558;3.253;-8.763;-8.932;0.0;13.6;-28.8;-17.3;192.2;37.7;19.0;0.0;62.86;39.46891;-0.34094;69.4;NaN;;13.8;;0 / 31;3863;2021-10-26 23:10:47:779
-1.115;-0.011;-22.789;-0.259;0.283;-9.802;-15.564;3.857;4.507;-0.037;-7.852;-10.738;0.0;10.7;-29.5;-16.9;190.6;62.5;19.0;0.0;61.81;39.46891;-0.34094;69.4;NaN;;13.8;;0 / 31;3913;2021-10-26 23:10:47:829
2.802;2.161;1.469;4.53;-3.692;7.877;-10.338;-5.865;2.809;-2.732;-7.476;-10.406;0.0;8.9;-30.4;-16.1;162.6;-3.4;-179.0;0.0;61.81;39.46891;-0.34094;69.4;NaN;;13.8;;0 / 31;3963;2021-10-26 23:10:47:879
-0.679;13.287;8.066;8.356;0.651;5.09;-7.746;-11.122;0.411;-0.959;-7.863;-8.461;0.0;7.9;-30.4;-15.7;205.3;22.1;-29.9;0.0;61.81;39.46891;-0.34094;69.4;NaN;;13.8;;0 / 31;4013;2021-10-26 23:10:47:929
0.43;34.262;-8.04;4.405;0.891;-8.715;2.343;-40.596;7.965;3.312;-5.68;-12.157;0.0;8.6;-29.0;-16.0;209.5;-1.6;-86.4;0.0;61.81;39.46891;-0.34094;69.4;NaN;;13.8;;0 / 31;4064;2021-10-26 23:10:47:980
-1.845;14.713;-8.794;7.269;1.307;-6.455;3.408;-18.032;-26.121;2.423;-3.898;-10.046;0.0;5.9;-25.6;-19.9;208.0;3.2;-26.4;0.0;61.81;39.46891;-0.34094;69.4;NaN;;13.8;;0 / 31;4114;2021-10-26 23:10:48:030
-4.452;1.677;-0.897;5.229;7.178;-4.166;12.355;-10.322;3.494;0.977;-5.507;-8.29;0.0;2.8;-23.9;-22.1;219.6;-19.5;-92.3;0.0;61.81;39.46891;-0.34094;69.4;NaN;;13.8;;0 / 31;4163;2021-10-26 23:10:48:079
-1.713;-0.517;-0.89;-3.089;8.26;-4.295;9.51;5.083;5.384;1.639;-5.912;-6.293;0.0;-1.4;-22.2;-24.7;154.9;-57.4;144.3;0.0;63.09;39.46891;-0.34094;69.4;NaN;;13.8;;0 / 31;4213;2021-10-26 23:10:48:129
-0.706;-3.595;-2.034;-8.787;1.987;-3.879;6.348;11.25;2.938;3.604;-5.911;-5.341;0.0;-2.5;-22.0;-24.9;143.8;-10.6;127.0;0.0;63.09;39.46891;-0.34094;69.4;NaN;;13.8;;0 / 31;4264;2021-10-26 23:10:48:180
-0.986;-0.043;0.658;2.701;7.566;5.622;1.659;9.574;-4.096;6.477;-3.192;-10.515;0.0;-0.4;-22.9;-23.8;131.2;-12.2;79.3;0.0;63.09;39.46891;-0.34094;69.4;NaN;;13.8;;0 / 31;4314;2021-10-26 23:10:48:230
0.153;13.167;-3.248;8.839;-0.172;-4.243;-4.648;0.177;-5.059;3.506;-6.597;-9.711;0.0;1.0;-24.2;-20.7;190.6;-1.6;-11.5;0.0;63.09;39.46891;-0.34094;69.4;NaN;;13.8;;0 / 31;4363;2021-10-26 23:10:48:279
-23.354;50.63;2.738;8.179;5.277;1.202;25.423;-42.528;-8.767;-0.844;-2.549;0.907;0.0;4.7;-25.9;-13.9;209.6;-26.4;-86.4;0.0;63.09;39.46891;-0.34094;69.4;NaN;;13.8;;0 / 31;4413;2021-10-26 23:10:48:329
-4.909;6.8;-3.741;7.585;5.057;-3.62;1.801;-3.483;-0.613;-0.828;-2.017;0.754;0.0;6.4;-26.6;-9.4;196.4;-21.5;-97.4;0.0;63.09;39.46891;-0.34094;69.4;NaN;;13.8;;0 / 31;4463;2021-10-26 23:10:48:379
-3.518;2.305;0.751;5.239;8.207;1.164;0.136;5.985;-2.036;-0.828;-2.017;0.754;0.0;6.5;-27.6;-5.5;185.1;-50.7;-117.0;0.0;60.45;39.46891;-0.34094;69.4;NaN;;13.8;;0 / 31;4513;2021-10-26 23:10:48:429
0.526;-2.702;2.192;-6.115;-3.419;6.862;-4.953;11.656;-4.854;-0.828;-2.017;0.754;0.0;4.6;-28.3;-7.0;211.7;-62.0;-49.2;0.0;60.45;39.46891;-0.34094;69.4;NaN;;13.8;;0 / 31;4564;2021-10-26 23:10:48:480
8.499;-3.528;6.462;-3.175;-7.24;5.799;-12.56;13.032;-10.291;2.81;-10.296;-4.33;0.0;1.0;-29.6;-12.2;170.2;47.6;28.7;0.0;60.45;39.46891;-0.34094;69.4;NaN;;13.8;;0 / 31;4614;2021-10-26 23:10:48:530
-1.098;1.8;-39.574;0.493;0.115;-9.792;-14.757;5.516;2.371;7.84;9.693;3.232;0.0;-0.5;-30.5;-15.2;183.3;-0.7;-177.1;0.0;60.45;39.46891;-0.34094;69.4;NaN;;13.8;;0 / 31;4664;2021-10-26 23:10:48:580
6.955;4.952;10.527;3.443;-4.994;7.705;-7.693;6.024;-12.787;6.058;8.744;5.474;0.0;-2.2;-32.8;-16.9;170.1;4.2;13.1;0.0;60.45;39.46891;-0.34094;69.4;NaN;;13.8;;0 / 31;4714;2021-10-26 23:10:48:630
-3.123;24.498;3.947;9.596;1.326;1.537;0.906;-13.203;-10.899;-1.477;5.799;1.609;0.0;-1.7;-34.5;-17.2;192.4;26.3;-34.5;0.0;60.45;39.46891;-0.34094;69.4;NaN;;13.8;;0 / 31;4764;2021-10-26 23:10:48:680
-2.159;34.276;1.998;6.316;0.503;-7.484;-1.113;-24.696;-5.226;-4.863;0.007;0.397;0.0;2.5;-35.5;-18.8;208.0;-5.5;-86.2;0.0;62.29;39.46891;-0.34094;69.4;NaN;;13.8;;0 / 31;4814;2021-10-26 23:10:48:730
0.605;15.008;-14.579;8.926;-0.996;-3.946;-3.889;-7.369;-27.822;-3.755;0.307;0.274;0.0;5.3;-34.6;-22.3;209.6;3.8;-50.9;0.0;62.29;39.46891;-0.34094;69.4;NaN;;13.8;;0 / 31;4864;2021-10-26 23:10:48:780
-5.06;6.443;-2.951;7.417;5.468;-3.357;3.86;-2.505;-8.017;-2.202;-0.5;-0.155;0.0;4.1;-32.0;-26.4;220.2;-19.2;-68.1;0.0;62.29;39.46891;-0.34094;69.4;NaN;;13.8;;0 / 31;4914;2021-10-26 23:10:48:830
-3.442;1.732;-3.418;4.405;7.144;-5.071;2.975;7.709;1.353;-1.139;0.065;-0.413;0.0;1.4;-30.7;-28.2;224.7;-41.9;-93.8;0.0;62.29;39.46891;-0.34094;69.4;NaN;;13.8;;0 / 31;4964;2021-10-26 23:10:48:880
-1.041;-2.613;-5.452;-3.773;1.705;-8.887;-0.375;9.231;-1.455;-1.405;-1.372;-1.039;0.0;-1.4;-29.9;-28.5;163.1;-10.0;157.0;0.0;62.29;39.46891;-0.34094;69.4;NaN;;13.8;;0 / 31;5014;2021-10-26 23:10:48:930
0.028;-1.565;6.489;0.694;-1.848;9.606;-2.924;11.062;-9.626;-1.405;-1.372;-1.039;0.0;-0.8;-30.4;-27.9;151.2;-4.1;31.5;0.0;62.29;39.46891;-0.34094;69.4;NaN;;13.8;;0 / 31;5064;2021-10-26 23:10:48:980
1.996;8.653;-3.832;7.925;-0.948;-5.703;-7.397;1.52;-3.759;3.107;-1.28;-6.143;0.0;0.4;-32.2;-26.4;208.1;18.4;-44.5;0.0;58.78;39.46891;-0.34094;69.4;NaN;;13.8;;0 / 31;5114;2021-10-26 23:10:49:030
-15.371;41.742;-1.251;9.28;3.175;-0.048;3.508;-22.9;1.444;-1.255;0.023;1.233;0.0;2.9;-33.4;-24.0;213.7;-1.7;-115.2;0.0;58.78;39.46891;-0.34094;69.4;NaN;;13.8;;0 / 31;5163;2021-10-26 23:10:49:079
-5.452;9.107;-3.14;8.648;4.18;-1.978;4.184;-12.07;-3.091;-1.669;-0.529;0.865;0.0;9.7;-33.3;-20.8;206.9;-25.2;-102.9;0.0;58.78;39.46891;-0.34094;69.4;NaN;;13.8;;0 / 31;5214;2021-10-26 23:10:49:130
-4.298;3.353;-1.718;5.464;7.791;-2.375;0.801;4.548;-0.962;-0.908;-0.128;0.22;0.0;14.9;-32.4;-18.8;192.6;-45.1;-120.9;0.0;58.78;39.46891;-0.34094;69.4;NaN;;13.8;;0 / 31;5263;2021-10-26 23:10:49:179
-0.703;-1.318;0.952;-7.465;-3.06;5.578;-1.834;8.357;-3.263;-1.065;-0.595;-0.312;0.0;19.3;-30.5;-17.3;206.0;-65.3;-96.8;0.0;58.78;39.46891;-0.34094;69.4;NaN;;13.8;;0 / 31;5313;2021-10-26 23:10:49:229
6.278;-3.394;5.33;-4.209;-6.747;5.741;-9.919;12.155;-8.478;-0.408;-2.667;-1.453;0.0;19.1;-30.7;-17.4;180.6;23.1;47.4;0.0;58.78;39.46891;-0.34094;69.4;NaN;;13.8;;0 / 31;5363;2021-10-26 23:10:49:279
2.551;2.786;-19.989;1.618;-0.34;-9.668;-8.935;3.206;20.024;6.457;9.266;7.883;0.0;15.5;-32.2;-17.0;132.3;41.0;-174.3;0.0;59.21;39.46891;-0.34094;69.4;NaN;;13.8;;0 / 31;5414;2021-10-26 23:10:49:330
0.694;1.938;-5.842;2.279;-0.441;-9.529;-8.935;3.206;20.024;6.004;8.182;3.765;0.0;13.9;-33.2;-17.2;162.5;1.9;-168.0;0.0;59.21;39.46891;-0.34094;69.4;NaN;;13.8;;0 / 31;5464;2021-10-26 23:10:49:380
-1.452;22.485;2.862;9.697;0.637;1.322;0.886;-13.382;-10.207;0.991;7.417;3.517;0.0;8.3;-35.1;-17.2;208.2;23.5;-45.2;0.0;59.21;39.46891;-0.34094;69.4;NaN;;13.8;;0 / 31;5513;2021-10-26 23:10:49:429
1.618;33.848;-0.186;9.759;-0.939;-0.134;0.293;-26.532;-6.05;-2.935;3.649;-0.856;0.0;8.8;-35.3;-16.7;206.9;-10.5;-82.0;0.0;59.21;39.46891;-0.34094;69.4;NaN;;13.8;;0 / 31;5564;2021-10-26 23:10:49:480
1.835;14.809;3.087;9.462;-0.886;2.418;-2.015;-6.841;0.6;-2.935;3.649;-0.856;0.0;9.5;-33.8;-18.4;210.4;5.2;-75.7;0.0;59.21;39.46891;-0.34094;69.4;NaN;;13.8;;0 / 31;5613;2021-10-26 23:10:49:529
-4.579;13.267;1.558;9.227;3.261;0.584;5.535;-5.019;-6.124;-2.303;1.154;-0.632;0.0;7.4;-33.0;-20.2;211.4;-20.1;-88.0;0.0;59.21;39.46891;-0.34094;69.4;NaN;;13.8;;0 / 31;5663;2021-10-26 23:10:49:579
-2.793;5.598;-1.199;8.389;4.52;-2.318;4.062;1.152;-2.358;-1.361;-0.126;-0.565;0.0;2.2;-32.2;-23.1;214.3;-21.8;-94.1;0.0;60.6;39.46891;-0.34094;69.4;NaN;;13.8;;0 / 31;5713;2021-10-26 23:10:49:629
-1.218;0.753;0.765;4.104;6.752;5.813;2.605;8.174;0.2;-0.862;-2.773;-1.241;0.0;-1.9;-31.9;-24.6;200.1;-32.6;-145.1;0.0;60.6;39.46891;-0.34094;69.4;NaN;;13.8;;0 / 31;5763;2021-10-26 23:10:49:679
-2.068;-5.531;-3.518;-9.151;3.112;-1.647;0.95;12.489;6.145;0.988;-2.778;-1.447;0.0;-4.4;-31.9;-24.4;145.2;-18.5;100.2;0.0;60.6;39.46891;-0.34094;69.4;NaN;;13.8;;0 / 31;5813;2021-10-26 23:10:49:729
2.12;2.087;0.162;6.991;-6.709;-1.504;-5.258;6.278;-5.218;5.338;-1.247;-4.284;0.0;-4.7;-32.5;-23.9;177.4;20.5;-7.6;0.0;60.6;39.46891;-0.34094;69.4;NaN;;13.8;;0 / 31;5864;2021-10-26 23:10:49:780
1.754;23.467;-2.831;9.749;-0.508;-0.943;-4.875;-10.362;0.497;1.525;0.685;2.035;0.0;-4.0;-33.7;-22.3;211.8;5.9;-124.6;0.0;60.6;39.46891;-0.34094;69.4;NaN;;13.8;;0 / 31;5914;2021-10-26 23:10:49:830
-6.56;28.929;-4.725;9.476;1.992;-1.58;7.382;-25.469;0.039;-1.782;-1.038;0.979;0.0;1.1;-35.0;-19.5;210.7;-15.2;-92.0;0.0;60.6;39.46891;-0.34094;69.4;NaN;;13.8;;0 / 31;5964;2021-10-26 23:10:49:880
-2.795;9.239;-0.634;9.261;3.108;-0.895;-0.479;-4.334;-3.084;-1.411;-0.649;0.804;0.0;7.0;-35.8;-17.2;203.8;-18.5;-95.5;0.0;58.08;39.46891;-0.34094;69.4;NaN;;13.8;;0 / 31;6013;2021-10-26 23:10:49:929
-0.071;3.442;0.315;9.677;-0.292;1.551;-1.101;4.343;-3.038;-1.404;-0.594;0.135;0.0;10.1;-35.5;-16.4;201.8;-11.6;-97.0;0.0;58.08;39.46891;-0.34094;69.4;NaN;;13.8;;0 / 31;6064;2021-10-26 23:10:49:980
2.446;-1.634;0.969;-5.492;-7.494;3.136;-3.93;9.304;-4.019;-1.404;-0.594;0.135;0.0;10.4;-35.8;-17.0;214.7;34.0;-60.4;0.0;58.08;39.46891;-0.34094;69.4;NaN;;13.8;;0 / 31;6114;2021-10-26 23:10:50:030
5.007;-3.595;5.313;-3.994;-6.196;6.469;-5.469;12.808;-4.392;-1.248;8.054;3.862;0.0;8.2;-35.9;-17.6;162.1;41.7;66.2;0.0;58.08;39.46891;-0.34094;69.4;NaN;;13.8;;0 / 31;6164;2021-10-26 23:10:50:080
1.294;4.057;-9.079;3.314;-0.474;-9.218;-0.246;10.042;3.077;2.09;4.382;7.874;0.0;2.3;-36.1;-19.3;187.4;2.8;-160.2;0.0;58.08;39.46891;-0.34094;69.4;NaN;;13.8;;0 / 31;6214;2021-10-26 23:10:50:130
0.916;8.198;9.993;7.537;-0.46;6.254;4.699;-0.528;-15.729;0.655;4.903;3.381;0.0;-1.6;-36.3;-19.8;186.3;7.5;-17.9;0.0;58.08;39.46891;-0.34094;69.4;NaN;;13.8;;0 / 31;6264;2021-10-26 23:10:50:180
-3.719;33.4;5.893;9.625;0.771;1.733;9.652;-25.753;-8.907;-2.355;-2.782;-2.75;0.0;-4.0;-36.4;-19.0;208.3;-15.7;-75.3;0.0;58.08;39.46891;-0.34094;69.4;NaN;;13.8;;0 / 31;6314;2021-10-26 23:10:50:230
2.683;16.638;-2.628;9.505;-1.642;-1.786;0.975;-9.344;-1.295;-2.237;-3.198;-2.13;0.0;-4.6;-36.4;-18.4;206.9;1.5;-82.8;0.0;59.83;39.46891;-0.34094;69.4;NaN;;13.8;;0 / 31;6364;2021-10-26 23:10:50:280
5.924;15.24;1.828;9.017;-3.481;1.676;-3.231;-7.258;0.357;-1.356;-2.089;-1.197;0.0;-6.5;-36.0;-18.4;203.8;20.8;-79.5;0.0;59.83;39.46891;-0.34094;69.4;NaN;;13.8;;0 / 31;6413;2021-10-26 23:10:50:329
0.818;9.323;4.054;8.935;-0.666;3.984;-0.216;-1.485;-4.11;-1.176;-0.603;-0.379;0.0;-9.7;-35.6;-18.2;201.9;11.0;-76.9;0.0;59.83;39.46891;-0.34094;69.4;NaN;;13.8;;0 / 31;6463;2021-10-26 23:10:50:379
-0.028;2.293;3.415;8.04;-0.034;5.617;1.985;5.218;-3.178;-0.776;-0.02;0.149;0.0;-14.0;-35.4;-16.3;195.6;1.4;-69.0;0.0;59.83;39.46891;-0.34094;69.4;NaN;;13.8;;0 / 31;6514;2021-10-26 23:10:50:430
-1.067;-1.768;9.256;-2.763;2.198;9.151;2.266;11.192;-9.758;-3.877;-10.872;-2.56;0.0;-20.3;-35.6;-11.5;148.6;-4.9;9.0;0.0;59.83;39.46891;-0.34094;69.4;NaN;;13.8;;0 / 31;6563;2021-10-26 23:10:50:479
-9.069;-5.699;7.748;-4.252;6.608;5.866;5.305;14.637;-7.716;-3.036;-8.66;-7.0;0.0;-22.1;-36.6;-3.9;147.3;-23.5;26.5;0.0;59.83;39.46891;-0.34094;69.4;NaN;;13.8;;0 / 31;6613;2021-10-26 23:10:50:529
-2.108;3.846;0.275;8.155;4.86;2.461;-2.534;4.881;1.853;-3.036;-8.66;-7.0;0.0;-19.9;-37.6;1.1;149.8;-48.0;30.3;0.0;60.36;39.46891;-0.34094;69.4;NaN;;13.8;;0 / 31;6663;2021-10-26 23:10:50:579
-17.392;30.71;2.625;8.471;4.894;0.69;9.771;-18.17;3.738;-3.036;-8.66;-7.0;0.0;-12.7;-37.9;10.1;157.6;-30.3;-85.5;0.0;60.36;39.46891;-0.34094;69.4;NaN;;13.8;;0 / 31;6714;2021-10-26 23:10:50:630
-6.161;10.936;-6.197;7.8;4.515;-3.874;1.453;-4.141;5.02;3.278;-0.999;-0.533;0.0;-7.3;-37.7;14.9;152.1;-34.4;-97.5;0.0;60.36;39.46891;-0.34094;69.4;NaN;;13.8;;0 / 31;6764;2021-10-26 23:10:50:680
-3.128;8.554;-7.688;7.599;3.424;-5.167;-1.888;-0.351;5.923;2.851;-0.129;0.902;0.0;-2.2;-36.5;20.3;164.5;-12.4;-140.5;0.0;60.36;39.46891;-0.34094;69.4;NaN;;13.8;;0 / 31;6814;2021-10-26 23:10:50:730
-2.039;4.763;-0.002;9.002;3.888;-0.148;-2.423;1.979;-0.105;2.418;-2.088;0.883;0.0;-0.7;-35.8;22.1;148.8;-20.4;-124.2;0.0;60.36;39.46891;-0.34094;69.4;NaN;;13.8;;0 / 31;6864;2021-10-26 23:10:50:780
0.749;0.557;-0.349;7.13;-5.942;-3.17;-4.342;6.249;-1.606;2.29;-0.503;1.093;0.0;-2.0;-35.4;23.5;149.7;37.3;-114.0;0.0;60.36;39.46891;-0.34094;69.4;NaN;;13.8;;0 / 31;6914;2021-10-26 23:10:50:830
2.278;-2.554;4.136;-6.191;-4.032;6.45;-6.117;11.119;-4.813;2.024;-1.1;1.551;0.0;-3.4;-35.1;23.6;234.2;45.5;54.1;0.0;60.36;39.46891;-0.34094;69.4;NaN;;13.8;;0 / 31;6964;2021-10-26 23:10:50:880
3.379;4.464;5.148;7.752;-3.4;4.951;-7.446;3.826;-2.973;-3.991;-8.804;0.273;0.0;-5.8;-35.5;22.4;141.0;40.0;-15.1;0.0;57.5;39.46891;-0.34094;69.4;NaN;;13.8;;0 / 31;7014;2021-10-26 23:10:50:930
-4.926;19.24;3.712;9.184;2.155;2.691;-3.765;-0.097;-0.319;-3.756;-7.338;0.392;0.0;-6.4;-35.5;21.8;147.8;-1.0;-69.6;0.0;57.5;39.46891;-0.34094;69.4;NaN;;13.8;;0 / 31;7064;2021-10-26 23:10:50:980
-6.127;23.129;1.929;9.452;2.418;0.972;3.314;-17.008;3.063;1.479;-2.331;0.176;0.0;-5.8;-35.2;21.8;144.9;-18.3;-90.1;0.0;57.5;39.46891;-0.34094;69.4;NaN;;13.8;;0 / 31;7113;2021-10-26 23:10:51:029
-6.651;17.425;-3.288;8.724;3.567;-2.701;4.045;-8.542;5.428;1.735;-1.448;0.13;0.0;-6.1;-35.1;21.8;145.2;-18.6;-96.5;0.0;57.5;39.46891;-0.34094;69.4;NaN;;13.8;;0 / 31;7163;2021-10-26 23:10:51:079
-0.459;13.902;-3.193;9.725;0.895;-0.862;-2.517;-6.154;8.596;1.735;-1.448;0.13;0.0;-6.8;-35.2;21.7;148.0;-5.2;-95.1;0.0;57.5;39.46891;-0.34094;69.4;NaN;;13.8;;0 / 31;7214;2021-10-26 23:10:51:130
-3.901;6.51;0.416;8.729;4.448;0.493;1.08;0.038;1.915;1.367;0.326;-0.036;0.0;-7.7;-35.6;21.4;143.6;-27.0;-86.8;0.0;57.5;39.46891;-0.34094;69.4;NaN;;13.8;;0 / 31;7264;2021-10-26 23:10:51:180
-0.557;1.172;-2.544;1.891;2.749;-9.222;-0.702;7.621;2.333;1.202;0.788;-0.177;0.0;-8.8;-35.3;21.4;129.5;-46.0;-109.0;0.0;58.3;39.46891;-0.34094;69.4;NaN;;13.8;;0 / 31;7313;2021-10-26 23:10:51:229
-3.781;-6.24;-0.222;-8.207;5.033;-1.863;-0.036;14.209;2.098;0.618;1.957;-1.714;0.0;-8.9;-34.9;21.5;208.1;-8.1;153.7;0.0;58.3;39.46891;-0.34094;69.4;NaN;;13.8;;0 / 31;7364;2021-10-26 23:10:51:280
1.187;0.528;2.982;4.132;-1.81;8.71;-7.185;6.703;-3.283;0.385;0.36;-8.183;0.0;-6.7;-33.8;22.6;177.4;21.7;14.5;0.0;58.3;39.46891;-0.34094;69.4;NaN;;13.8;;0 / 31;7414;2021-10-26 23:10:51:330
-1.527;17.341;-8.368;8.389;0.436;-5.066;-6.505;-7.577;1.356;-1.599;-1.077;-1.311;0.0;-2.2;-32.8;23.6;144.1;0.2;-77.4;0.0;58.3;39.46891;-0.34094;69.4;NaN;;13.8;;0 / 31;7463;2021-10-26 23:10:51:379
-9.035;30.451;-0.883;9.318;2.988;-0.637;11.097;-42.861;1.414;0.616;-0.598;2.492;0.0;5.2;-30.4;26.0;140.1;-19.8;-91.2;0.0;58.3;39.46891;-0.34094;69.4;NaN;;13.8;;0 / 31;7514;2021-10-26 23:10:51:430
-4.997;4.09;1.529;7.029;6.383;2.456;-0.596;2.227;-0.247;1.181;-1.791;1.978;0.0;9.4;-29.2;26.1;141.2;-15.0;-84.9;0.0;58.3;39.46891;-0.34094;69.4;NaN;;13.8;;0 / 31;7563;2021-10-26 23:10:51:479
-1.22;4.217;1.967;7.523;1.585;6.091;-4.418;5.414;-1.056;1.338;-2.143;1.207;0.0;12.5;-28.5;25.6;151.3;-14.8;-66.0;0.0;58.3;39.46891;-0.34094;69.4;NaN;;13.8;;0 / 31;7613;2021-10-26 23:10:51:529
4.744;-3.166;1.347;-5.392;-8.016;1.695;-8.275;10.898;-0.23;0.753;-2.514;0.827;0.0;11.2;-29.3;25.1;243.5;53.0;55.4;0.0;61.61;39.46891;-0.34094;69.4;NaN;;13.8;;0 / 31;7663;2021-10-26 23:10:51:579
5.119;-3.097;-6.209;-2.581;-2.073;-9.232;-5.108;12.658;15.877;-0.76;-3.352;0.767;0.0;6.2;-30.4;25.9;236.3;37.8;33.9;0.0;61.61;39.46891;-0.34094;69.4;NaN;;13.8;;0 / 31;7713;2021-10-26 23:10:51:629
0.77;-1.871;-0.301;-8.825;-2.543;3.443;1.583;10.695;3.532;-0.76;-3.352;0.767;0.0;1.9;-30.5;27.2;184.2;7.1;166.3;0.0;61.61;39.46891;-0.34094;69.4;NaN;;13.8;;0 / 31;7763;2021-10-26 23:10:51:679
5.057;3.403;6.268;3.352;-5.875;7.101;-0.921;3.181;-3.692;-1.881;-4.11;6.614;0.0;-0.4;-29.8;28.1;126.5;36.8;-25.3;0.0;61.61;39.46891;-0.34094;69.4;NaN;;13.8;;0 / 31;7813;2021-10-26 23:10:51:729
-7.633;36.105;2.008;9.586;2.059;0.172;12.604;-28.777;-0.293;1.887;-0.866;-2.849;0.0;-0.2;-29.1;28.7;135.3;-9.0;-83.6;0.0;61.61;39.46891;-0.34094;69.4;NaN;;13.8;;0 / 31;7864;2021-10-26 23:10:51:780
-0.086;28.824;-4.488;9.213;0.761;-3.27;1.873;-30.179;6.237;1.458;0.916;-2.895;0.0;-0.4;-28.0;28.9;134.3;5.2;-96.1;0.0;61.61;39.46891;-0.34094;69.4;NaN;;13.8;;0 / 31;7913;2021-10-26 23:10:51:829
0.849;9.026;3.882;6.991;-0.211;6.871;1.561;1.65;19.826;1.394;1.127;-2.564;0.0;-3.7;-28.8;28.6;136.5;0.0;-67.2;0.0;63.13;39.46891;-0.34094;69.4;NaN;;13.8;;0 / 31;7963;2021-10-26 23:10:51:879
-3.612;4.969;-3.915;6.709;5.104;-5.009;6.456;3.811;6.636;1.653;1.344;-2.187;0.0;-6.7;-29.2;28.1;125.7;-31.4;-126.7;0.0;63.13;39.46891;-0.34094;69.4;NaN;;13.8;;0 / 31;8013;2021-10-26 23:10:51:929
-0.849;0.914;0.797;5.555;5.66;5.765;3.221;8.338;-0.011;2.202;3.122;-2.708;0.0;-8.5;-29.8;27.7;121.3;-48.9;-77.2;0.0;63.13;39.46891;-0.34094;69.4;NaN;;13.8;;0 / 31;8063;2021-10-26 23:10:51:979
-0.61;-2.25;-2.611;-6.651;1.776;-6.991;0.684;10.416;0.537;-0.487;2.56;-3.4;0.0;-9.2;-28.9;28.5;70.2;-77.8;-104.0;0.0;63.13;39.46891;-0.34094;69.4;NaN;;13.8;;0 / 31;8114;2021-10-26 23:10:52:030
3.109;2.451;-2.779;6.579;-6.34;-3.563;-6.145;7.493;2.787;1.923;7.586;-7.278;0.0;-9.2;-28.6;29.8;219.5;-2.9;150.4;0.0;63.13;39.46891;-0.34094;69.4;NaN;;13.8;;0 / 31;8164;2021-10-26 23:10:52:080
-0.67;30.526;-14.431;8.921;0.431;-4.051;-3.199;-18.838;8.883;1.552;-0.464;2.818;0.0;-4.6;-27.3;32.3;131.0;-1.8;-99.9;0.0;63.13;39.46891;-0.34094;69.4;NaN;;13.8;;0 / 31;8214;2021-10-26 23:10:52:130
-14.299;32.496;-2.886;8.945;3.917;-0.886;12.696;-26.812;-0.057;-0.119;-1.301;1.175;0.0;-1.1;-26.5;33.4;126.4;-17.3;-91.5;0.0;58.89;39.46891;-0.34094;69.4;NaN;;13.8;;0 / 31;8263;2021-10-26 23:10:52:179
-6.13;7.937;-1.998;7.556;5.966;-1.877;3.656;-0.479;-0.585;-0.412;-1.68;0.749;0.0;3.5;-25.0;33.8;120.3;-29.6;-101.5;0.0;58.89;39.46891;-0.34094;69.4;NaN;;13.8;;0 / 31;8313;2021-10-26 23:10:52:229
-0.134;1.821;-0.39;9.304;-1.231;-2.844;-1.634;6.362;-1.516;0.023;-1.658;0.278;0.0;4.1;-24.1;33.7;116.9;-30.6;-108.7;0.0;58.89;39.46891;-0.34094;69.4;NaN;;13.8;;0 / 31;8364;2021-10-26 23:10:52:280
3.255;-2.182;0.342;-5.382;-8.121;1.101;-5.258;10.291;-2.106;0.059;-1.273;-0.424;0.0;2.6;-23.7;32.2;251.7;55.9;78.4;0.0;58.89;39.46891;-0.34094;69.4;NaN;;13.8;;0 / 31;8414;2021-10-26 23:10:52:330
5.581;-3.837;8.281;-3.266;-5.234;7.623;-7.58;12.962;-6.053;-6.576;-3.486;4.758;0.0;0.5;-24.1;31.1;248.0;32.3;23.2;0.0;58.89;39.46891;-0.34094;69.4;NaN;;13.8;;0 / 31;8464;2021-10-26 23:10:52:380
-0.27;1.129;4.363;0.809;2.011;9.562;-1.564;6.077;8.189;-2.793;-5.214;9.587;0.0;-1.7;-24.6;29.6;173.8;5.0;-172.4;0.0;58.89;39.46891;-0.34094;69.4;NaN;;13.8;;0 / 31;8513;2021-10-26 23:10:52:429
-0.411;3.279;4.251;6.598;0.742;7.216;6.19;4.593;-2.347;-4.148;-0.42;5.477;0.0;-1.9;-25.4;29.0;177.2;-18.8;0.8;0.0;58.89;39.46891;-0.34094;69.4;NaN;;13.8;;0 / 31;8564;2021-10-26 23:10:52:480
-0.517;32.237;3.746;9.764;-0.067;0.934;6.011;-23.497;-1.766;0.989;0.31;-3.304;0.0;-0.8;-26.3;28.4;133.5;-7.6;-79.4;0.0;57.65;39.46891;-0.34094;69.4;NaN;;13.8;;0 / 31;8614;2021-10-26 23:10:52:530
2.644;19.864;-12.114;8.605;-0.771;-4.635;-2.606;-16.304;16.118;0.753;-0.034;-2.287;0.0;-1.1;-26.9;27.5;139.7;14.9;-112.4;0.0;57.65;39.46891;-0.34094;69.4;NaN;;13.8;;0 / 31;8664;2021-10-26 23:10:52:580
0.73;14.531;-1.278;9.524;-0.263;2.322;3.935;-4.025;5.747;0.925;-0.149;-1.627;0.0;-2.0;-28.7;24.6;138.2;-2.7;-106.3;0.0;57.65;39.46891;-0.34094;69.4;NaN;;13.8;;0 / 31;8713;2021-10-26 23:10:52:629
-2.704;8.937;-0.146;9.337;2.993;-0.273;5.223;-1.569;1.887;1.206;-0.178;-1.297;0.0;-4.0;-29.7;22.4;142.8;-6.9;-67.7;0.0;57.65;39.46891;-0.34094;69.4;NaN;;13.8;;0 / 31;8764;2021-10-26 23:10:52:680
-3.013;2.065;-5.108;2.476;4.875;-8.14;4.614;6.305;4.195;1.348;-0.111;-1.195;0.0;-7.1;-30.1;19.8;183.2;-29.8;-163.1;0.0;57.65;39.46891;-0.34094;69.4;NaN;;13.8;;0 / 31;8813;2021-10-26 23:10:52:729
-1.457;-1.622;-2.53;-5.047;8.389;-0.608;3.028;9.805;1.362;0.301;2.35;-2.258;0.0;-8.3;-29.1;19.3;224.9;-58.8;96.9;0.0;57.65;39.46891;-0.34094;69.4;NaN;;13.8;;0 / 31;8864;2021-10-26 23:10:52:780
1.263;-1.759;5.967;-1.106;-2.907;9.299;-1.698;12.383;-0.531;1.104;6.014;-4.591;0.0;-9.1;-28.0;19.7;208.0;4.6;158.0;0.0;58.66;39.46891;-0.34094;69.4;NaN;;13.8;;0 / 31;8913;2021-10-26 23:10:52:829
1.668;9.833;-5.134;8.734;-1.743;-4.104;-5.88;2.273;-0.101;0.5;12.515;-4.788;0.0;-7.3;-27.1;20.2;132.0;34.9;-37.7;0.0;58.66;39.46891;-0.34094;69.4;NaN;;13.8;;0 / 31;8963;2021-10-26 23:10:52:879
-12.616;43.446;-4.995;9.342;2.978;0.177;11.887;-36.494;-1.499;0.318;-0.819;1.689;0.0;-2.3;-25.4;22.2;136.7;-15.1;-98.8;0.0;58.66;39.46891;-0.34094;69.4;NaN;;13.8;;0 / 31;9014;2021-10-26 23:10:52:930
-2.98;10.977;-0.617;9.524;2.313;-0.278;0.575;-8.371;-1.51;-0.362;-1.086;0.709;0.0;1.9;-23.8;23.8;134.9;-10.3;-90.2;0.0;58.66;39.46891;-0.34094;69.4;NaN;;13.8;;0 / 31;9064;2021-10-26 23:10:52:980
-2.688;3.152;0.612;7.283;6.474;1.12;0.901;5.46;-0.833;0.157;-1.471;0.395;0.0;6.5;-21.8;26.4;123.9;-40.8;-97.3;0.0;58.66;39.46891;-0.34094;69.4;NaN;;13.8;;0 / 31;9114;2021-10-26 23:10:53:030
0.782;-0.215;1.151;-5.914;-7.446;2.409;-3.18;9.384;-2.128;-0.055;-2.076;-0.067;0.0;7.1;-21.2;28.3;142.9;-35.5;-63.3;0.0;58.66;39.46891;-0.34094;69.4;NaN;;13.8;;0 / 31;9164;2021-10-26 23:10:53:080
6.532;-4.95;5.773;-5.205;-6.282;5.44;-6.739;13.382;-4.987;-0.945;-2.699;0.007;0.0;3.2;-22.3;30.5;259.3;39.8;43.7;0.0;59.18;39.46891;-0.34094;69.4;NaN;;13.8;;0 / 31;9213;2021-10-26 23:10:53:129
4.586;2.312;-10.218;2.562;-6.33;-7.039;-2.104;8.779;19.856;-2.529;-5.984;9.968;0.0;-1.1;-22.6;31.3;179.7;10.6;-177.9;0.0;59.18;39.46891;-0.34094;69.4;NaN;;13.8;;0 / 31;9263;2021-10-26 23:10:53:179
1.773;0.852;7.312;1.987;-3.496;8.945;5.322;9.215;-2.964;-2.482;-3.577;8.524;0.0;-6.5;-23.2;30.9;195.4;-10.4;23.5;0.0;59.18;39.46891;-0.34094;69.4;NaN;;13.8;;0 / 31;9314;2021-10-26 23:10:53:230
-3.798;26.629;5.996;9.543;1.642;1.551;10.174;-14.28;-0.179;-2.482;-3.577;8.524;0.0;-7.6;-23.4;30.2;121.1;22.8;-23.1;0.0;59.18;39.46891;-0.34094;69.4;NaN;;13.8;;0 / 31;9364;2021-10-26 23:10:53:280
5.246;36.852;-7.623;8.724;-1.561;-4.195;5.301;-30.932;4.311;1.429;0.765;-3.34;0.0;-7.6;-24.2;28.5;139.8;9.2;-115.7;0.0;59.18;39.46891;-0.34094;69.4;NaN;;13.8;;0 / 31;9414;2021-10-26 23:10:53:330
-0.481;11.625;-5.732;8.691;-2.073;4.041;4.292;-2.579;7.072;1.471;0.765;-2.612;0.0;-8.0;-25.6;27.0;139.8;-1.5;-113.5;0.0;59.18;39.46891;-0.34094;69.4;NaN;;13.8;;0 / 31;9463;2021-10-26 23:10:53:379
-5.017;8.49;-6.999;6.072;3.979;-6.594;6.584;-2.765;-3.694;1.696;0.894;-2.106;0.0;-9.8;-27.0;24.5;140.1;-5.9;-42.5;0.0;59.18;39.46891;-0.34094;69.4;NaN;;13.8;;0 / 31;9513;2021-10-26 23:10:53:429
-2.743;2.233;-6.556;2.102;3.749;-8.811;4.923;6.794;6.841;2.263;1.472;-1.786;0.0;-11.5;-27.7;23.2;132.0;-19.9;-82.6;0.0;61.07;39.46891;-0.34094;69.4;NaN;;13.8;;0 / 31;9563;2021-10-26 23:10:53:479
-0.193;-0.426;0.792;-0.546;2.725;9.404;1.699;8.696;-0.722;0.702;2.093;-2.312;0.0;-13.1;-28.0;22.1;160.6;-16.1;3.3;0.0;61.07;39.46891;-0.34094;69.4;NaN;;13.8;;0 / 31;9614;2021-10-26 23:10:53:530
-0.837;-3.331;-5.981;-5.21;0.929;-8.255;0.563;13.243;8.763;2.283;5.795;-5.039;0.0;-13.4;-28.0;22.3;219.8;-8.3;153.7;0.0;61.07;39.46891;-0.34094;69.4;NaN;;13.8;;0 / 31;9663;2021-10-26 23:10:53:579
3.387;4.971;-0.344;7.968;-5.037;-2.705;-6.309;5.841;-1.417;3.232;7.667;-6.712;0.0;-10.7;-28.3;23.6;143.5;45.4;-94.8;0.0;61.07;39.46891;-0.34094;69.4;NaN;;13.8;;0 / 31;9713;2021-10-26 23:10:53:629
-11.209;49.756;-6.264;9.462;2.375;-0.972;1.684;-32.894;9.62;0.526;-0.642;2.222;0.0;-6.1;-28.4;24.5;140.7;13.9;-89.9;0.0;61.07;39.46891;-0.34094;69.4;NaN;;13.8;;0 / 31;9763;2021-10-26 23:10:53:679
-2.879;15.946;0.11;9.625;1.901;0.053;3.707;-20.194;-1.604;-0.516;-1.617;0.949;0.0;1.3;-27.7;25.8;136.8;-11.2;-89.7;0.0;61.07;39.46891;-0.34094;69.4;NaN;;13.8;;0 / 31;9814;2021-10-26 23:10:53:730
-1.603;2.161;-0.926;7.661;5.373;-2.935;-0.46;7.282;-1.308;-0.397;-2.006;0.839;0.0;5.8;-27.1;26.7;128.7;-28.2;-110.6;0.0;60.71;39.46891;-0.34094;69.4;NaN;;13.8;;0 / 31;9863;2021-10-26 23:10:53:779
2.396;-1.536;0.526;-5.344;-8.016;1.824;-4.611;11.15;-2.325;-0.397;-2.006;0.839;0.0;7.6;-25.5;27.5;170.9;10.8;-23.1;0.0;60.71;39.46891;-0.34094;69.4;NaN;;13.8;;0 / 31;9913;2021-10-26 23:10:53:829
5.402;-4.454;2.81;-5.43;-6.565;4.86;-6.889;14.077;-2.908;-2.525;-4.396;1.989;0.0;5.9;-25.9;27.7;244.0;40.9;56.2;0.0;60.71;39.46891;-0.34094;69.4;NaN;;13.8;;0 / 31;9963;2021-10-26 23:10:53:879
3.403;3.939;-12.04;3.936;-4.003;-8.045;0.682;8.145;18.902;-2.887;-6.191;10.677;0.0;2.3;-26.5;28.4;157.8;24.1;-153.9;0.0;60.71;39.46891;-0.34094;69.4;NaN;;13.8;;0 / 31;10014;2021-10-26 23:10:53:930
-0.047;2.032;4.734;4.573;-0.302;8.672;6.737;6.02;-3.22;-3.46;-1.541;6.853;0.0;0.4;-27.1;28.9;174.7;-6.4;-5.6;0.0;60.71;39.46891;-0.34094;69.4;NaN;;13.8;;0 / 31;10063;2021-10-26 23:10:53:979
-4.777;25.343;5.488;9.433;1.772;2.016;11.174;-10.891;-2.755;-1.589;-1.031;-2.206;0.0;0.8;-26.6;30.8;134.3;-13.3;-74.2;0.0;60.71;39.46891;-0.34094;69.4;NaN;;13.8;;0 / 31;10114;2021-10-26 23:10:54:030
3.731;22.32;-24.886;5.368;-0.436;-8.198;-2.409;-23.888;6.458;0.078;0.299;-3.1;0.0;1.3;-25.7;32.2;129.6;-3.5;-84.0;0.0;59.84;39.46891;-0.34094;69.4;NaN;;13.8;;0 / 31;10164;2021-10-26 23:10:54:080
1.974;15.843;-5.038;7.834;-0.302;-5.895;5.777;-5.188;12.557;1.597;-0.089;-2.59;0.0;1.0;-26.7;33.2;135.6;1.8;-127.0;0.0;59.84;39.46891;-0.34094;69.4;NaN;;13.8;;0 / 31;10213;2021-10-26 23:10:54:129
-4.382;9.086;-5.96;8.183;3.716;-3.926;7.858;0.074;8.391;1.748;-0.157;-1.915;0.0;-0.7;-28.0;33.5;126.9;-17.6;-110.5;0.0;59.84;39.46891;-0.34094;69.4;NaN;;13.8;;0 / 31;10263;2021-10-26 23:10:54:179
-1.804;1.874;-3.291;4.377;4.171;-7.724;4.048;7.494;3.226;2.183;-0.039;-1.664;0.0;-5.9;-30.0;34.1;126.1;-19.3;-107.1;0.0;59.84;39.46891;-0.34094;69.4;NaN;;13.8;;0 / 31;10313;2021-10-26 23:10:54:229
-1.287;-1.292;-0.742;-5.89;5.243;-5.832;2.627;10.562;-0.272;1.171;1.637;-2.482;0.0;-9.1;-30.3;35.0;200.7;-25.8;-174.2;0.0;59.84;39.46891;-0.34094;69.4;NaN;;13.8;;0 / 31;10364;2021-10-26 23:10:54:280
0.945;-1.048;6.276;-1.015;-1.551;9.629;-0.618;11.795;-3.185;0.701;2.368;-3.152;0.0;-13.4;-28.3;36.0;157.2;9.1;6.0;0.0;59.84;39.46891;-0.34094;69.4;NaN;;13.8;;0 / 31;10414;2021-10-26 23:10:54:330
3.633;12.698;-4.277;8.614;-2.643;-3.874;-3.506;0.806;2.927;1.783;-1.388;2.497;0.0;-13.6;-26.8;36.0;140.2;28.6;-108.7;0.0;59.84;39.46891;-0.34094;69.4;NaN;;13.8;;0 / 31;10464;2021-10-26 23:10:54:380
-12.267;43.537;-4.172;9.419;2.365;-1.36;6.031;-25.549;9.641;-0.035;0.315;0.339;0.0;-11.3;-25.2;35.2;126.0;-7.5;-100.8;0.0;58.69;39.46891;-0.34094;69.4;NaN;;13.8;;0 / 31;10513;2021-10-26 23:10:54:429
-1.838;18.431;-0.148;9.764;0.929;-0.129;1.158;-7.199;-1.607;-0.62;0.486;-0.479;0.0;-7.9;-24.5;33.5;121.9;-13.9;-93.3;0.0;58.69;39.46891;-0.34094;69.4;NaN;;13.8;;0 / 31;10564;2021-10-26 23:10:54:480
-1.893;1.943;1.091;6.823;6.455;2.811;1.007;6.443;-1.082;-0.291;0.523;-0.64;0.0;-3.8;-24.8;30.8;128.7;-41.2;-67.6;0.0;58.69;39.46891;-0.34094;69.4;NaN;;13.8;;0 / 31;10614;2021-10-26 23:10:54:530
0.821;-1.507;2.211;-4.966;-2.322;8.131;-0.092;8.935;-3.122;-0.822;0.006;-0.907;0.0;-1.9;-25.9;29.1;215.0;13.7;31.4;0.0;58.69;39.46891;-0.34094;69.4;NaN;;13.8;;0 / 31;10664;2021-10-26 23:10:54:580
4.859;-4.394;4.744;-4.793;-7.345;4.396;-5.405;13.677;-4.802;-2.834;-1.429;0.435;0.0;-2.3;-26.8;27.2;240.9;36.2;54.8;0.0;58.69;39.46891;-0.34094;69.4;NaN;;13.8;;0 / 31;10713;2021-10-26 23:10:54:629
3.305;1.031;-4.069;1.944;-5.66;-7.772;-0.402;7.623;13.377;-3.151;-6.285;9.601;0.0;-5.5;-27.7;26.3;213.7;58.5;141.0;0.0;58.69;39.46891;-0.34094;69.4;NaN;;13.8;;0 / 31;10763;2021-10-26 23:10:54:679
2.288;0.849;4.926;2.677;-4.372;8.361;4.467;4.096;-4.322;-2.83;-4.491;8.005;0.0;-7.7;-27.9;26.0;147.3;21.4;-6.6;0.0;58.82;39.46891;-0.34094;69.4;NaN;;13.8;;0 / 31;10813;2021-10-26 23:10:54:729
-3.226;27.952;5.701;9.438;1.331;2.313;10.008;-13.467;-2.488;-0.236;-2.651;-1.128;0.0;-7.3;-28.0;26.3;136.4;4.9;-59.7;0.0;58.82;39.46891;-0.34094;69.4;NaN;;13.8;;0 / 31;10863;2021-10-26 23:10:54:779
6.034;35.337;-4.89;9.05;-1.748;-3.347;-0.008;-26.971;7.29;0.702;2.142;-3.993;0.0;-6.4;-28.4;26.3;136.3;-3.3;-86.2;0.0;58.82;39.46891;-0.34094;69.4;NaN;;13.8;;0 / 31;10913;2021-10-26 23:10:54:829
-0.694;12.81;-13.638;9.208;-2.825;1.853;5.105;-5.28;12.113;0.687;1.962;-3.531;0.0;-7.1;-29.2;25.2;149.1;-0.4;-126.7;0.0;58.82;39.46891;-0.34094;69.4;NaN;;13.8;;0 / 31;10964;2021-10-26 23:10:54:880
-6.18;8.152;-8.66;6.378;4.669;-5.808;8.019;-3.788;-7.504;1.52;1.594;-2.703;0.0;-10.6;-30.0;23.3;147.6;-28.4;-132.3;0.0;58.82;39.46891;-0.34094;69.4;NaN;;13.8;;0 / 31;11014;2021-10-26 23:10:54:930
-1.785;3.169;-2.855;4.985;4.243;-7.307;4.909;5.752;3.461;1.902;1.694;-2.324;0.0;-13.3;-30.4;21.9;145.0;-20.2;-114.5;0.0;58.82;39.46891;-0.34094;69.4;NaN;;13.8;;0 / 31;11063;2021-10-26 23:10:54:979
-0.775;-0.102;-1.328;-0.996;4.396;-8.71;2.967;9.552;2.628;2.167;3.94;-3.116;0.0;-16.1;-30.7;21.4;213.7;-21.6;-177.0;0.0;58.82;39.46891;-0.34094;69.4;NaN;;13.8;;0 / 31;11113;2021-10-26 23:10:55:029
0.562;-2.197;1.572;-6.359;-2.27;7.116;-0.639;12.488;0.307;2.184;5.803;-5.354;0.0;-16.9;-30.3;21.9;220.1;-7.2;155.6;0.0;58.88;39.46891;-0.34094;69.4;NaN;;13.8;;0 / 31;11163;2021-10-26 23:10:55:079
3.442;5.665;-0.876;8.509;-4.587;-1.662;-5.578;5.825;-3.613;3.354;8.035;-5.389;0.0;-14.8;-30.2;23.9;149.8;27.9;-101.0;0.0;58.88;39.46891;-0.34094;69.4;NaN;;13.8;;0 / 31;11213;2021-10-26 23:10:55:129
-12.15;41.816;-4.073;9.337;2.892;-0.771;3.205;-24.557;0.968;-0.445;-1.515;1.898;0.0;-10.7;-29.8;26.0;138.3;-8.1;-95.9;0.0;58.88;39.46891;-0.34094;69.4;NaN;;13.8;;0 / 31;11263;2021-10-26 23:10:55:179
-2.673;17.851;-1.646;9.673;1.35;-0.915;6.138;-22.85;0.742;-0.724;-1.028;0.444;0.0;-2.9;-28.9;29.0;132.0;-19.6;-92.1;0.0;58.88;39.46891;-0.34094;69.4;NaN;;13.8;;0 / 31;11314;2021-10-26 23:10:55:230
-1.91;2.944;0.284;7.848;5.612;1.767;0.317;6.364;-1.899;-0.186;-1.734;0.255;0.0;1.4;-28.3;30.0;133.1;-10.2;-98.9;0.0;58.88;39.46891;-0.34094;69.4;NaN;;13.8;;0 / 31;11364;2021-10-26 23:10:55:280
1.077;-1.342;1.333;-4.07;-4.75;7.551;-1.086;8.977;-3.201;-0.248;-1.888;-0.225;0.0;4.4;-28.5;30.2;232.8;29.0;28.3;0.0;58.88;39.46891;-0.34094;69.4;NaN;;13.8;;0 / 31;11414;2021-10-26 23:10:55:330
4.701;-3.676;1.421;-5.277;-8.092;1.695;-5.833;13.363;-3.087;-1.872;-3.464;0.462;0.0;3.7;-29.2;29.7;244.1;42.3;59.5;0.0;58.34;39.46891;-0.34094;69.4;NaN;;13.8;;0 / 31;11464;2021-10-26 23:10:55:380
4.595;2.63;-3.037;3.778;-6.297;6.498;-0.81;8.466;15.361;-1.872;-3.464;0.462;0.0;-0.7;-29.8;29.5;189.2;12.4;167.1;0.0;58.34;39.46891;-0.34094;69.4;NaN;;13.8;;0 / 31;11513;2021-10-26 23:10:55:429
2.161;1.721;5.878;1.532;-2.322;9.404;5.739;9.509;-4.536;-4.474;-1.634;6.154;0.0;-3.2;-30.1;29.3;181.1;-10.7;5.3;0.0;58.34;39.46891;-0.34094;69.4;NaN;;13.8;;0 / 31;11564;2021-10-26 23:10:55:480
-4.421;26.2;3.985;9.677;1.499;0.613;8.312;-8.608;-0.596;-1.843;-1.597;-0.873;0.0;-4.3;-30.1;29.2;135.1;-8.8;-86.4;0.0;58.34;39.46891;-0.34094;69.4;NaN;;13.8;;0 / 31;11614;2021-10-26 23:10:55:530
3.592;21.964;3.65;9.117;-3.28;-1.523;3.228;-30.108;11.542;0.98;-0.152;-2.4;0.0;-4.0;-29.7;29.0;138.1;19.5;-99.5;0.0;58.34;39.46891;-0.34094;69.4;NaN;;13.8;;0 / 31;11664;2021-10-26 23:10:55:580
1.306;8.885;3.027;8.164;-2.126;4.999;7.95;0.572;15.84;1.724;0.066;-2.074;0.0;-5.5;-29.9;28.4;137.8;-6.6;-110.1;0.0;58.34;39.46891;-0.34094;69.4;NaN;;13.8;;0 / 31;11713;2021-10-26 23:10:55:629
-4.009;9.16;-3.698;8.509;3.745;-3.127;7.081;-0.997;2.106;1.449;0.4;-1.642;0.0;-7.6;-30.1;27.5;142.5;-8.3;-122.0;0.0;58.34;39.46891;-0.34094;69.4;NaN;;13.8;;0 / 31;11763;2021-10-26 23:10:55:679
-1.601;3.755;-2.786;6.981;2.964;-4.515;3.561;6.082;3.207;1.424;0.718;-1.444;0.0;-11.6;-31.3;25.5;152.1;-17.6;-131.7;0.0;61.36;39.46891;-0.34094;69.4;NaN;;13.8;;0 / 31;11813;2021-10-26 23:10:55:729
-1.098;-0.758;-1.103;-4.568;3.496;-7.944;2.251;10.276;1.361;0.412;1.891;-2.026;0.0;-12.4;-32.0;24.6;286.4;-73.0;152.4;0.0;61.36;39.46891;-0.34094;69.4;NaN;;13.8;;0 / 31;11864;2021-10-26 23:10:55:780
3.008;1.35;5.143;3.251;-5.775;7.23;-3.457;9.213;-6.087;1.589;4.775;-3.874;0.0;-11.3;-32.2;25.1;221.6;-9.8;121.8;0.0;61.36;39.46891;-0.34094;69.4;NaN;;13.8;;0 / 31;11913;2021-10-26 23:10:55:829
4.808;16.678;-5.735;9.299;-2.375;-2.011;-7.145;-2.638;7.022;2.226;10.934;-3.981;0.0;-8.3;-31.9;26.6;151.3;39.0;-112.5;0.0;61.36;39.46891;-0.34094;69.4;NaN;;13.8;;0 / 31;11964;2021-10-26 23:10:55:880
-10.199;40.818;-7.458;9.371;2.389;-1.618;4.207;-24.142;3.258;0.412;-1.369;1.549;0.0;-2.0;-30.7;29.7;134.1;-14.1;-99.8;0.0;61.36;39.46891;-0.34094;69.4;NaN;;13.8;;0 / 31;12014;2021-10-26 23:10:55:930
-2.788;9.914;-1.168;9.318;2.696;-1.437;1.47;-2.415;-1.641;0.412;-1.369;1.549;0.0;2.5;-29.2;31.3;133.8;-8.5;-86.0;0.0;61.36;39.46891;-0.34094;69.4;NaN;;13.8;;0 / 31;12063;2021-10-26 23:10:55:979
-0.904;4.866;-1.512;9.357;1.772;-2.351;0.118;3.742;1.423;0.149;-1.969;0.424;0.0;5.8;-27.2;34.3;128.3;-12.6;-112.4;0.0;57.17;39.46891;-0.34094;69.4;NaN;;13.8;;0 / 31;12113;2021-10-26 23:10:56:029
1.764;-0.208;1.113;-2.327;-8.207;4.836;-3.006;10.138;-2.569;0.025;-1.979;-0.002;0.0;5.0;-26.6;35.8;130.2;-3.4;-77.4;0.0;57.17;39.46891;-0.34094;69.4;NaN;;13.8;;0 / 31;12163;2021-10-26 23:10:56:079
3.286;-5.821;-9.648;-5.258;-3.127;-7.666;-4.364;13.614;-1.056;0.548;-7.984;7.11;0.0;0.5;-26.8;38.0;210.0;18.6;145.6;0.0;57.17;39.46891;-0.34094;69.4;NaN;;13.8;;0 / 31;12214;2021-10-26 23:10:56:130
0.983;4.799;11.286;5.741;-2.121;7.661;1.686;6.249;10.917;-0.133;-8.292;9.293;0.0;-3.2;-26.5;39.5;126.9;12.5;-36.8;0.0;57.17;39.46891;-0.34094;69.4;NaN;;13.8;;0 / 31;12264;2021-10-26 23:10:56:180
-0.404;4.727;3.319;7.508;1.077;6.215;8.454;6.918;-3.669;-5.197;1.975;-1.008;0.0;-7.7;-27.1;41.3;171.6;-33.0;-0.9;0.0;57.17;39.46891;-0.34094;69.4;NaN;;13.8;;0 / 31;12314;2021-10-26 23:10:56:230
0.148;24.465;2.29;9.749;0.192;1.058;5.406;-12.942;-0.748;-0.028;1.598;-2.907;0.0;-10.6;-27.1;42.2;122.4;-7.0;-73.3;0.0;57.17;39.46891;-0.34094;69.4;NaN;;13.8;;0 / 31;12363;2021-10-26 23:10:56:279
12.88;23.807;-23.407;8.959;-0.833;-3.898;-0.906;-8.214;20.501;1.123;0.857;-1.021;0.0;-15.7;-27.1;41.2;146.3;26.2;-121.6;0.0;61.63;39.46891;-0.34094;69.4;NaN;;13.8;;0 / 31;12413;2021-10-26 23:10:56:329
1.397;14.555;2.477;9.155;-1.188;3.309;2.443;-3.323;0.335;1.48;0.918;-0.71;0.0;-19.3;-27.7;38.8;131.6;-10.2;-120.7;0.0;61.63;39.46891;-0.34094;69.4;NaN;;13.8;;0 / 31;12464;2021-10-26 23:10:56:380
-2.369;8.439;-3.724;8.442;2.351;-4.401;3.166;-2.317;0.107;1.718;1.241;-0.575;0.0;-23.0;-28.2;34.2;125.1;-4.5;-85.5;0.0;61.63;39.46891;-0.34094;69.4;NaN;;13.8;;0 / 31;12513;2021-10-26 23:10:56:429
-1.685;3.059;-4.878;3.687;2.509;-8.734;3.238;6.879;5.111;1.824;1.501;-0.723;0.0;-24.1;-29.4;30.5;125.5;-12.8;-89.1;0.0;61.63;39.46891;-0.34094;69.4;NaN;;13.8;;0 / 31;12563;2021-10-26 23:10:56:479
-0.686;-0.679;-0.988;-4.511;5.143;-7.029;1.547;9.827;0.882;1.824;1.501;-0.723;0.0;-24.5;-29.0;27.3;240.9;-31.6;147.3;0.0;61.63;39.46891;-0.34094;69.4;NaN;;13.8;;0 / 31;12614;2021-10-26 23:10:56:530
1.493;0.574;1.338;6.761;-6.675;-2.428;-2.388;8.378;-2.237;1.618;3.067;-2.105;0.0;-23.5;-28.9;26.0;121.0;28.8;12.6;0.0;61.63;39.46891;-0.34094;69.4;NaN;;13.8;;0 / 31;12664;2021-10-26 23:10:56:580
4.456;19.924;-4.528;9.098;-2.274;-2.868;-4.781;-1.584;2.069;2.975;4.518;-0.616;0.0;-19.4;-28.9;26.3;156.5;19.7;-112.1;0.0;61.63;39.46891;-0.34094;69.4;NaN;;13.8;;0 / 31;12714;2021-10-26 23:10:56:630
-4.71;36.84;-2.664;9.754;-0.311;-0.996;5.044;-27.2;0.471;-0.469;0.345;0.252;0.0;-14.6;-29.7;27.2;139.0;2.4;-93.7;0.0;58.62;39.46891;-0.34094;69.4;NaN;;13.8;;0 / 31;12764;2021-10-26 23:10:56:680
-0.308;9.162;-0.225;9.807;0.12;-0.163;-2.349;-7.574;0.027;-0.567;-0.719;0.359;0.0;-6.8;-29.8;28.7;136.0;-0.7;-91.0;0.0;58.62;39.46891;-0.34094;69.4;NaN;;13.8;;0 / 31;12813;2021-10-26 23:10:56:729
0.751;3.255;0.385;9.629;-1.642;0.881;-0.027;5.844;-2.03;-0.635;-1.275;0.106;0.0;-1.4;-29.5;29.6;134.9;-3.1;-92.2;0.0;58.62;39.46891;-0.34094;69.4;NaN;;13.8;;0 / 31;12863;2021-10-26 23:10:56:779
1.213;-0.758;1.414;-6.665;-5.43;4.721;-1.331;11.226;-2.945;-0.637;-2.014;0.235;0.0;3.2;-29.1;29.7;111.0;39.6;-31.7;0.0;58.62;39.46891;-0.34094;69.4;NaN;;13.8;;0 / 31;12913;2021-10-26 23:10:56:829
4.835;-3.863;1.898;-5.866;-6.78;3.979;-2.924;14.061;-1.176;-3.363;-3.819;2.375;0.0;4.4;-29.4;29.1;233.7;33.7;71.6;0.0;58.62;39.46891;-0.34094;69.4;NaN;;13.8;;0 / 31;12963;2021-10-26 23:10:56:879
2.305;2.388;-3.999;6.086;-4.659;-6.115;2.237;9.357;9.322;-3.329;-4.475;8.054;0.0;4.7;-30.7;27.7;146.4;28.4;-135.1;0.0;58.62;39.46891;-0.34094;69.4;NaN;;13.8;;0 / 31;13014;2021-10-26 23:10:56:930
-1.603;9.567;-7.051;6.067;1.235;-7.609;7.874;1.924;-8.691;-4.489;-0.376;2.774;0.0;4.9;-32.2;25.9;168.8;-5.8;-25.8;0.0;57.21;39.46891;-0.34094;69.4;NaN;;13.8;;0 / 31;13064;2021-10-26 23:10:56:980
2.06;32.498;6.47;9.361;-0.541;2.863;6.638;-24.395;9.923;-0.3;-4.039;-0.776;0.0;8.6;-32.5;23.0;144.9;-5.0;-87.1;0.0;57.21;39.46891;-0.34094;69.4;NaN;;13.8;;0 / 31;13113;2021-10-26 23:10:57:029
4.267;16.686;3.983;9.256;-2.452;2.126;0.79;-13.651;-5.086;-0.543;-0.382;-2.6;0.0;12.7;-32.1;20.7;148.4;9.2;-72.6;0.0;57.21;39.46891;-0.34094;69.4;NaN;;13.8;;0 / 31;13163;2021-10-26 23:10:57:079
2.903;14.527;-3.135;9.462;-1.968;-1.657;1.877;-4.765;4.315;-0.58;-0.547;-2.323;0.0;17.0;-31.6;18.8;142.9;11.6;-99.9;0.0;57.21;39.46891;-0.34094;69.4;NaN;;13.8;;0 / 31;13213;2021-10-26 23:10:57:129
0.967;10.048;2.07;9.558;-0.895;2.011;2.294;-2.054;-1.501;-0.491;-1.618;-1.446;0.0;17.6;-32.2;18.0;152.6;6.6;-81.8;0.0;57.21;39.46891;-0.34094;69.4;NaN;;13.8;;0 / 31;13264;2021-10-26 23:10:57:180
0.44;2.36;1.304;8.083;-1.561;5.334;2.627;5.006;-0.605;-0.573;-2.065;-0.89;0.0;16.9;-33.9;16.4;157.4;7.6;-76.3;0.0;57.21;39.46891;-0.34094;69.4;NaN;;13.8;;0 / 31;13314;2021-10-26 23:10:57:230
0.777;-2.439;5.043;-4.156;-1.255;8.792;1.851;11.236;-2.811;-1.13;-1.215;-0.731;0.0;17.6;-34.5;13.5;205.2;13.6;-11.8;0.0;57.21;39.46891;-0.34094;69.4;NaN;;13.8;;0 / 31;13363;2021-10-26 23:10:57:279
-1.072;-2.446;8.157;-3.74;1.935;8.859;3.053;12.453;-4.701;-4.242;0.506;-0.408;0.0;20.6;-33.9;6.2;213.5;-11.4;22.9;0.0;58.62;39.46891;-0.34094;69.4;NaN;;13.8;;0 / 31;13413;2021-10-26 23:10:57:329
-3.044;3.559;2.367;6.958;5.875;3.644;4.522;4.908;2.68;-6.482;1.431;-1.315;0.0;23.0;-32.3;0.6;211.8;-25.8;-24.0;0.0;58.62;39.46891;-0.34094;69.4;NaN;;13.8;;0 / 31;13463;2021-10-26 23:10:57:379
-8.818;40.967;0.596;9.61;1.954;-0.038;9.554;-33.291;4.474;0.635;2.999;-2.058;0.0;25.7;-28.9;-6.9;174.4;-24.8;-109.7;0.0;58.62;39.46891;-0.34094;69.4;NaN;;13.8;;0 / 31;13514;2021-10-26 23:10:57:430
-1.632;13.612;-1.682;9.644;1.039;-1.451;2.317;-6.327;5.052;3.159;-4.66;-3.036;0.0;26.0;-27.3;-10.9;199.2;-9.4;-85.4;0.0;58.62;39.46891;-0.34094;69.4;NaN;;13.8;;0 / 31;13564;2021-10-26 23:10:57:480
1.742;13.095;-4.406;9.189;-1.489;-3.093;-0.592;-4.149;7.765;2.963;-6.064;-2.237;0.0;25.3;-26.8;-13.4;190.9;8.7;-108.6;0.0;58.62;39.46891;-0.34094;69.4;NaN;;13.8;;0 / 31;13613;2021-10-26 23:10:57:529
-0.471;5.787;1.227;9.433;0.948;2.504;0.398;2.919;1.878;1.755;-4.753;-1.021;0.0;23.6;-27.5;-15.1;209.9;0.2;-88.8;0.0;58.62;39.46891;-0.34094;69.4;NaN;;13.8;;0 / 31;13663;2021-10-26 23:10:57:579
-0.162;2.228;1.859;7.527;0.69;6.249;0.666;6.637;-0.667;1.362;-4.083;-0.385;0.0;19.7;-29.8;-16.6;219.3;-7.5;-58.6;0.0;60.52;39.46891;-0.34094;69.4;NaN;;13.8;;0 / 31;13713;2021-10-26 23:10:57:629
-0.275;-0.732;2.06;-3.587;1.389;9.021;0.637;9.418;-0.192;-0.171;-2.209;-0.328;0.0;16.4;-31.0;-18.0;219.7;-6.8;-31.5;0.0;60.52;39.46891;-0.34094;69.4;NaN;;13.8;;0 / 31;13763;2021-10-26 23:10:57:679
2.269;0.811;5.936;2.145;-3.682;8.835;0.852;11.444;-1.239;-1.875;0.254;-0.485;0.0;13.9;-32.5;-18.9;192.4;-14.4;26.0;0.0;60.52;39.46891;-0.34094;69.4;NaN;;13.8;;0 / 31;13814;2021-10-26 23:10:57:730
-1.515;10.412;6.481;8.504;1.614;4.611;2.102;-1.031;-2.096;-3.183;2.467;2.282;0.0;11.6;-33.2;-19.5;210.4;19.3;-31.6;0.0;60.52;39.46891;-0.34094;69.4;NaN;;13.8;;0 / 31;13864;2021-10-26 23:10:57:780
-0.38;25.439;-15.613;9.06;0.23;-3.754;1.574;-17.24;23.633;1.806;-5.895;-3.013;0.0;10.6;-33.7;-19.5;204.4;-11.5;-101.6;0.0;60.52;39.46891;-0.34094;69.4;NaN;;13.8;;0 / 31;13914;2021-10-26 23:10:57:830
-3.65;16.642;-1.476;9.371;2.136;-1.963;4.333;-8.223;0.969;1.621;-5.452;-2.479;0.0;8.2;-34.0;-20.2;212.0;-9.2;-76.6;0.0;60.52;39.46891;-0.34094;69.4;NaN;;13.8;;0 / 31;13963;2021-10-26 23:10:57:879
1.239;17.715;-2.96;9.309;-0.551;-3.036;2.144;-7.349;0.93;1.917;-5.549;-2.034;0.0;3.2;-33.5;-22.0;212.2;-3.6;-83.1;0.0;57.18;39.46891;-0.34094;69.4;NaN;;13.8;;0 / 31;14013;2021-10-26 23:10:57:929
-2.829;9.375;-1.304;9.27;2.954;-1.226;2.767;-0.951;2.32;1.683;-4.66;-1.098;0.0;-1.9;-32.8;-23.5;214.3;-9.9;-78.5;0.0;57.18;39.46891;-0.34094;69.4;NaN;;13.8;;0 / 31;14063;2021-10-26 23:10:57:979
-1.843;3.08;-0.756;8.566;4.774;0.0;3.451;6.361;1.15;1.082;-4.887;-1.356;0.0;-8.0;-30.8;-25.4;227.2;-29.1;-90.0;0.0;57.18;39.46891;-0.34094;69.4;NaN;;13.8;;0 / 31;14113;2021-10-26 23:10:58:029
-0.11;0.28;-0.658;3.17;0.225;-9.28;0.731;9.408;1.256;1.289;-4.615;-1.046;0.0;-10.4;-30.5;-25.5;208.9;-24.6;-156.2;0.0;57.18;39.46891;-0.34094;69.4;NaN;;13.8;;0 / 31;14163;2021-10-26 23:10:58:079
-1.445;-3.26;-2.491;-7.661;3.021;-5.325;0.537;11.957;1.259;1.915;-4.46;-1.383;0.0;-11.2;-30.4;-25.0;159.9;-18.2;127.5;0.0;57.18;39.46891;-0.34094;69.4;NaN;;13.8;;0 / 31;14213;2021-10-26 23:10:58:129
1.926;5.821;3.37;9.165;-2.251;2.667;-4.403;5.614;-5.556;0.729;-4.779;-1.903;0.0;-10.4;-30.8;-24.9;140.5;-5.9;87.6;0.0;57.18;39.46891;-0.34094;69.4;NaN;;13.8;;0 / 31;14264;2021-10-26 23:10:58:180
-2.975;46.422;-0.375;9.773;0.814;-0.163;-1.76;-31.178;-2.237;0.993;-1.255;1.482;0.0;-9.7;-31.9;-24.1;217.9;-4.8;-91.0;0.0;57.18;39.46891;-0.34094;69.4;NaN;;13.8;;0 / 31;14313;2021-10-26 23:10:58:229
-3.844;10.206;-0.067;9.041;3.797;-0.134;2.081;-6.68;-1.34;-0.419;-1.826;0.369;0.0;-8.3;-32.9;-23.9;218.0;-12.0;-89.1;0.0;59.41;39.46891;-0.34094;69.4;NaN;;13.8;;0 / 31;14364;2021-10-26 23:10:58:280
-1.45;4.643;1.402;9.093;2.433;2.753;1.568;4.431;-2.455;-0.279;-1.63;0.153;0.0;-5.8;-34.4;-23.3;222.1;-30.7;-78.5;0.0;59.41;39.46891;-0.34094;69.4;NaN;;13.8;;0 / 31;14413;2021-10-26 23:10:58:329
1.414;0.73;1.01;2.294;-7.954;5.258;-2.695;8.669;-1.72;-0.291;-1.513;-0.284;0.0;-3.5;-34.9;-23.6;209.5;-6.5;-65.0;0.0;59.41;39.46891;-0.34094;69.4;NaN;;13.8;;0 / 31;14463;2021-10-26 23:10:58:379
5.388;-4.595;-6.268;-4.056;-4.075;-7.944;-5.063;12.063;-0.879;1.402;2.651;1.942;0.0;-2.8;-34.9;-24.2;159.8;24.6;153.0;0.0;59.41;39.46891;-0.34094;69.4;NaN;;13.8;;0 / 31;14513;2021-10-26 23:10:58:429
1.955;1.536;3.446;3.558;-3.649;8.38;-1.889;7.903;-5.787;6.084;2.879;4.432;0.0;-4.1;-35.2;-24.8;203.0;40.7;-179.2;0.0;59.41;39.46891;-0.34094;69.4;NaN;;13.8;;0 / 31;14563;2021-10-26 23:10:58:479
0.531;1.46;4.727;3.405;-1.02;9.141;3.907;5.929;-9.909;4.471;3.45;6.921;0.0;-5.8;-34.6;-25.8;187.1;21.8;-23.0;0.0;59.41;39.46891;-0.34094;69.4;NaN;;13.8;;0 / 31;14613;2021-10-26 23:10:58:529
-2.999;25.662;3.042;9.677;1.269;0.939;8.359;-13.749;-8.788;-4.738;-1.055;-3.089;0.0;-7.1;-34.9;-26.8;207.9;-14.0;-47.7;0.0;57.51;39.46891;-0.34094;69.4;NaN;;13.8;;0 / 31;14663;2021-10-26 23:10:58:579
10.441;29.082;2.697;9.194;-3.338;0.699;-4.705;-26.377;-3.517;-3.407;-0.294;-2.301;0.0;-8.3;-35.3;-28.3;216.9;19.9;-85.7;0.0;57.51;39.46891;-0.34094;69.4;NaN;;13.8;;0 / 31;14713;2021-10-26 23:10:58:629
1.493;13.569;-2.465;9.601;-0.929;-1.786;1.86;-3.409;1.184;-3.407;-0.294;-2.301;0.0;-9.2;-35.4;-30.1;222.0;4.9;-113.0;0.0;57.51;39.46891;-0.34094;69.4;NaN;;13.8;;0 / 31;14764;2021-10-26 23:10:58:680
-1.361;12.595;-0.713;9.735;1.164;0.153;3.59;-4.728;0.352;-1.142;-0.227;-1.25;0.0;-10.3;-34.0;-33.1;223.7;-0.2;-110.8;0.0;57.51;39.46891;-0.34094;69.4;NaN;;13.8;;0 / 31;14814;2021-10-26 23:10:58:730
-2.156;5.514;-2.721;7.848;3.361;-4.822;4.17;2.55;-0.629;-0.654;-0.607;-1.051;0.0;-11.3;-32.6;-34.6;224.3;-6.8;-74.0;0.0;57.51;39.46891;-0.34094;69.4;NaN;;13.8;;0 / 31;14864;2021-10-26 23:10:58:780
-0.794;1.261;-0.969;5.986;4.65;-6.225;2.668;7.245;-0.484;-0.135;-1.039;-1.378;0.0;-12.1;-31.0;-34.8;227.7;-20.0;-121.6;0.0;57.51;39.46891;-0.34094;69.4;NaN;;13.8;;0 / 31;14913;2021-10-26 23:10:58:829
-0.275;-2.891;0.327;-9.586;0.436;-2.025;1.485;11.625;4.802;1.073;-1.267;-1.93;0.0;-14.6;-29.7;-32.3;188.6;-7.3;163.3;0.0;57.51;39.46891;-0.34094;69.4;NaN;;13.8;;0 / 31;14963;2021-10-26 23:10:58:879
3.741;3.88;-0.239;7.278;-6.263;-1.987;-3.409;8.279;-6.733;3.115;-0.714;-1.583;0.0;-15.7;-29.3;-29.0;143.1;10.3;20.3;0.0;57.51;39.46891;-0.34094;69.4;NaN;;13.8;;0 / 31;15014;2021-10-26 23:10:58:930
2.867;24.774;-1.536;9.773;-0.589;-0.555;-3.287;-14.862;-2.078;-0.452;0.746;1.166;0.0;-15.7;-30.1;-26.4;226.3;20.5;-108.7;0.0;57.51;39.46891;-0.34094;69.4;NaN;;13.8;;0 / 31;15064;2021-10-26 23:10:58:980
-0.292;24.889;-1.026;9.797;0.0;-0.383;1.082;-16.976;-2.136;-1.362;-0.659;0.065;0.0;-12.2;-32.9;-22.6;216.1;-4.4;-91.9;0.0;57.51;39.46891;-0.34094;69.4;NaN;;13.8;;0 / 31;15113;2021-10-26 23:10:59:029
-2.862;8.188;-1.113;9.093;3.515;-1.063;2.307;-0.404;-1.639;-1.082;-0.911;-0.048;0.0;-8.6;-34.6;-20.5;212.6;-6.5;-95.0;0.0;57.51;39.46891;-0.34094;69.4;NaN;;13.8;;0 / 31;15163;2021-10-26 23:10:59:079
-0.315;4.557;1.735;8.839;0.469;4.223;1.494;3.99;-2.857;-0.975;-1.082;-0.329;0.0;-4.3;-35.8;-19.6;210.4;-14.2;-85.3;0.0;57.51;39.46891;-0.34094;69.4;NaN;;13.8;;0 / 31;15213;2021-10-26 23:10:59:129
1.989;-2.257;1.811;-6.258;-5.559;5.104;-1.886;11.218;-3.884;-1.209;-1.046;-0.426;0.0;-3.4;-35.5;-20.0;195.2;2.7;-40.6;0.0;57.51;39.46891;-0.34094;69.4;NaN;;13.8;;0 / 31;15263;2021-10-26 23:10:59:179
2.946;-5.457;-10.924;-3.859;-1.81;-8.83;-6.746;16.203;11.58;-1.209;-1.046;-0.426;0.0;-4.6;-35.5;-21.1;173.1;10.6;156.4;0.0;56.89;39.46891;-0.34094;69.4;NaN;;13.8;;0 / 31;15313;2021-10-26 23:10:59:229
-0.835;0.406;3.858;-0.029;3.012;9.333;-0.757;7.924;-6.309;6.422;2.704;5.286;0.0;-5.8;-35.5;-21.6;167.1;-17.9;0.2;0.0;56.89;39.46891;-0.34094;69.4;NaN;;13.8;;0 / 31;15363;2021-10-26 23:10:59:279
0.172;10.603;6.829;8.667;-0.244;4.587;3.834;3.221;-17.366;4.362;4.749;6.33;0.0;-7.3;-35.1;-22.2;187.0;18.4;-30.0;0.0;56.89;39.46891;-0.34094;69.4;NaN;;13.8;;0 / 31;15414;2021-10-26 23:10:59:330
5.043;33.884;-2.372;9.61;-1.796;-0.776;1.57;-26.419;-2.085;-3.995;-0.064;-2.863;0.0;-7.0;-34.9;-22.0;210.6;3.2;-83.1;0.0;56.89;39.46891;-0.34094;69.4;NaN;;13.8;;0 / 31;15463;2021-10-26 23:10:59:379
2.544;14.541;-0.533;9.687;-1.379;-0.685;0.447;-9.366;-2.868;-2.749;0.421;-2.068;0.0;-6.4;-34.7;-22.0;214.1;24.0;-97.6;0.0;56.89;39.46891;-0.34094;69.4;NaN;;13.8;;0 / 31;15513;2021-10-26 23:10:59:429
0.768;13.615;-3.956;9.5;-0.503;-2.389;2.787;-5.354;2.76;-1.057;-0.392;-1.509;0.0;-6.5;-33.9;-23.4;215.3;7.2;-110.6;0.0;56.89;39.46891;-0.34094;69.4;NaN;;13.8;;0 / 31;15564;2021-10-26 23:10:59:480
-2.884;9.945;3.121;9.017;2.749;2.71;5.114;-2.542;-4.971;-0.686;-0.388;-1.21;0.0;-9.5;-31.6;-25.4;215.5;-6.6;-75.7;0.0;59.78;39.46891;-0.34094;69.4;NaN;;13.8;;0 / 31;15614;2021-10-26 23:10:59:530
-1.089;2.822;-1.402;8.37;3.141;-4.037;4.401;5.179;1.084;-0.347;-1.551;-1.597;0.0;-12.7;-29.7;-27.1;223.6;-12.6;-97.6;0.0;59.78;39.46891;-0.34094;69.4;NaN;;13.8;;0 / 31;15664;2021-10-26 23:10:59:580
-1.247;-0.27;-0.327;-0.915;9.591;-1.829;3.138;8.62;-1.548;-0.599;-2.224;-1.817;0.0;-16.0;-27.8;-27.8;182.7;-78.0;153.4;0.0;59.78;39.46891;-0.34094;69.4;NaN;;13.8;;0 / 31;15714;2021-10-26 23:10:59:630
0.09;-1.273;-0.691;6.503;-7.312;0.699;1.1;11.379;-1.312;1.705;-2.128;-2.405;0.0;-16.4;-27.7;-28.2;154.5;-11.4;121.0;0.0;59.78;39.46891;-0.34094;69.4;NaN;;13.8;;0 / 31;15764;2021-10-26 23:10:59:680
4.844;14.761;-2.81;9.29;-2.686;-1.623;-4.272;2.413;-1.134;1.971;-0.279;0.516;0.0;-15.1;-29.6;-27.3;224.4;42.1;-96.1;0.0;59.78;39.46891;-0.34094;69.4;NaN;;13.8;;0 / 31;15813;2021-10-26 23:10:59:729
-3.461;41.998;-1.874;9.768;0.8;-0.345;4.103;-32.795;-1.582;1.971;-0.279;0.516;0.0;-11.9;-31.6;-26.1;223.3;3.2;-98.5;0.0;59.78;39.46891;-0.34094;69.4;NaN;;13.8;;0 / 31;15863;2021-10-26 23:10:59:779
0.002;10.986;-0.052;9.74;1.034;-0.503;-0.809;-7.255;-2.665;-0.922;-0.695;0.035;0.0;-5.5;-34.6;-24.3;214.1;3.5;-88.6;0.0;59.78;39.46891;-0.34094;69.4;NaN;;13.8;;0 / 31;15913;2021-10-26 23:10:59:829
-0.801;3.791;0.011;9.577;1.317;1.638;1.152;5.928;-2.493;-0.813;-0.111;-0.353;0.0;-0.4;-35.8;-24.1;214.1;-16.9;-96.4;0.0;58.97;39.46891;-0.34094;69.4;NaN;;13.8;;0 / 31;15964;2021-10-26 23:10:59:880
1.433;-1.486;1.919;-3.227;-5.167;7.685;-0.344;9.294;-3.688;-1.002;0.26;-0.456;0.0;4.9;-36.4;-23.8;199.6;12.1;-25.7;0.0;58.97;39.46891;-0.34094;69.4;NaN;;13.8;;0 / 31;16013;2021-10-26 23:10:59:929
6.96;-6.785;-11.183;-4.755;-3.266;-7.93;-5.045;15.289;4.88;1.407;5.164;2.862;0.0;5.8;-36.4;-23.5;154.5;37.9;62.1;0.0;58.97;39.46891;-0.34094;69.4;NaN;;13.8;;0 / 31;16063;2021-10-26 23:10:59:979
-1.429;1.115;7.915;3.51;-1.092;9.093;0.134;5.949;-0.429;6.742;1.249;3.404;0.0;4.7;-36.6;-21.6;197.9;6.4;-21.1;0.0;58.97;39.46891;-0.34094;69.4;NaN;;13.8;;0 / 31;16113;2021-10-26 23:11:00:029
-0.801;4.114;6.618;7.202;1.456;6.493;6.622;2.975;-8.773;3.049;3.617;6.34;0.0;3.4;-36.0;-21.1;204.0;-6.8;-37.4;0.0;58.97;39.46891;-0.34094;69.4;NaN;;13.8;;0 / 31;16164;2021-10-26 23:11:00:080
-0.813;27.718;-1.067;8.428;-1.441;-4.803;9.469;-16.873;-7.836;-3.071;1.834;-4.054;0.0;2.9;-34.6;-20.1;210.0;-5.7;-71.4;0.0;58.97;39.46891;-0.34094;69.4;NaN;;13.8;;0 / 31;16213;2021-10-26 23:11:00:129
0.651;12.765;-5.957;8.619;-0.038;-4.678;0.232;-9.452;-3.622;-1.852;1.92;-2.633;0.0;2.9;-33.7;-19.7;212.9;21.2;-85.1;0.0;57.29;39.46891;-0.34094;69.4;NaN;;13.8;;0 / 31;16263;2021-10-26 23:11:00:179
0.177;15.865;-4.851;9.438;-0.115;-2.662;3.803;-6.868;0.789;-0.639;-0.003;-1.922;0.0;1.3;-33.3;-19.6;210.0;0.7;-105.8;0.0;57.29;39.46891;-0.34094;69.4;NaN;;13.8;;0 / 31;16313;2021-10-26 23:11:00:229
-1.139;11.262;2.46;9.51;1.336;1.992;5.321;-1.988;-3.977;-0.639;-0.003;-1.922;0.0;-2.3;-32.8;-20.3;210.6;1.3;-82.6;0.0;57.29;39.46891;-0.34094;69.4;NaN;;13.8;;0 / 31;16364;2021-10-26 23:11:00:280
-1.326;3.42;-3.688;6.488;2.739;-6.823;4.198;6.071;1.66;-0.639;-0.003;-1.922;0.0;-7.0;-31.1;-21.9;214.7;-8.1;-96.7;0.0;57.29;39.46891;-0.34094;69.4;NaN;;13.8;;0 / 31;16413;2021-10-26 23:11:00:329
-1.22;-0.287;-1.558;-1.628;5.76;-7.767;3.284;9.492;-0.256;-0.639;-0.003;-1.922;0.0;-9.8;-29.7;-22.6;211.4;-14.4;-146.0;0.0;57.29;39.46891;-0.34094;69.4;NaN;;13.8;;0 / 31;16464;2021-10-26 23:11:00:380
2.843;0.818;3.509;-2.715;-1.901;9.232;2.792;12.465;-1.176;1.552;-3.001;-1.745;0.0;-11.9;-29.1;-23.0;150.7;11.2;16.4;0.0;57.29;39.46891;-0.34094;69.4;NaN;;13.8;;0 / 31;16514;2021-10-26 23:11:00:430
4.349;8.746;-4.133;9.409;-2.485;-1.207;-3.309;1.007;0.115;2.437;-0.37;1.122;0.0;-11.8;-30.1;-22.9;228.1;38.5;-118.3;0.0;57.29;39.46891;-0.34094;69.4;NaN;;13.8;;0 / 31;16564;2021-10-26 23:11:00:480
-2.745;35.591;-3.437;9.677;1.235;-0.977;2.356;-21.3;0.967;-0.921;-0.686;0.452;0.0;-8.0;-32.4;-21.1;215.0;4.3;-94.7;0.0;54.12;39.46891;-0.34094;69.4;NaN;;13.8;;0 / 31;16613;2021-10-26 23:11:00:529
2.048;14.823;0.584;9.716;-1.322;0.158;-1.157;-8.985;-2.558;-1.353;-0.986;0.016;0.0;-4.1;-33.8;-20.0;211.9;-2.9;-94.2;0.0;54.12;39.46891;-0.34094;69.4;NaN;;13.8;;0 / 31;16664;2021-10-26 23:11:00:580
-0.385;4.681;-1.656;9.361;1.183;-2.667;1.813;2.683;-1.237;-1.015;-0.763;-0.224;0.0;1.9;-35.1;-19.6;207.7;-6.9;-105.9;0.0;54.12;39.46891;-0.34094;69.4;NaN;;13.8;;0 / 31;16714;2021-10-26 23:11:00:630
0.931;0.751;1.457;2.236;-5.143;8.049;-0.227;7.875;-3.367;-0.856;0.077;-0.507;0.0;4.6;-35.2;-19.9;211.6;19.2;-72.9;0.0;54.12;39.46891;-0.34094;69.4;NaN;;13.8;;0 / 31;16764;2021-10-26 23:11:00:680
4.562;-3.942;-3.425;-7.149;-6.709;0.192;-1.532;12.29;-3.321;-0.818;2.269;0.182;0.0;4.1;-35.5;-20.7;156.1;36.0;62.5;0.0;54.12;39.46891;-0.34094;69.4;NaN;;13.8;;0 / 31;16814;2021-10-26 23:11:00:730
2.678;3.092;4.138;3.663;-1.686;8.94;0.675;6.642;-1.648;5.393;1.898;3.263;0.0;2.0;-35.5;-21.2;155.1;24.7;154.4;0.0;54.12;39.46891;-0.34094;69.4;NaN;;13.8;;0 / 31;16864;2021-10-26 23:11:00:780
-0.785;1.299;4.918;4.894;0.857;8.456;7.263;6.789;-10.606;5.393;1.898;3.263;0.0;-1.6;-35.8;-23.4;196.0;-5.0;-30.1;0.0;57.43;39.46891;-0.34094;69.4;NaN;;13.8;;0 / 31;16913;2021-10-26 23:11:00:829
0.469;25.473;-0.359;9.697;0.34;1.441;8.931;-4.683;-6.989;-1.941;3.813;-3.812;0.0;-2.6;-35.9;-25.6;214.2;-4.8;-71.9;0.0;57.43;39.46891;-0.34094;69.4;NaN;;13.8;;0 / 31;16963;2021-10-26 23:11:00:879
13.804;25.918;5.143;9.452;-2.179;-1.446;-10.423;-23.805;-3.826;-1.768;0.305;-2.99;0.0;-2.3;-36.6;-28.1;221.2;24.7;-120.6;0.0;57.43;39.46891;-0.34094;69.4;NaN;;13.8;;0 / 31;17013;2021-10-26 23:11:00:929
2.446;15.62;-4.906;9.419;-1.379;-2.375;3.09;-6.607;3.197;-1.291;-1.004;-2.412;0.0;-2.2;-35.8;-30.1;217.4;-0.9;-112.3;0.0;57.43;39.46891;-0.34094;69.4;NaN;;13.8;;0 / 31;17064;2021-10-26 23:11:00:980
-0.696;12.152;2.915;9.491;0.881;2.313;3.38;-5.46;-1.553;-0.382;-1.263;-1.551;0.0;-5.2;-33.7;-32.3;222.4;-5.2;-76.3;0.0;57.43;39.46891;-0.34094;69.4;NaN;;13.8;;0 / 31;17113;2021-10-26 23:11:01:029
-1.405;4.705;-4.602;9.304;1.025;-2.931;5.848;-0.498;-0.427;-0.236;-1.922;-1.721;0.0;-8.5;-31.6;-33.2;226.9;-6.0;-107.5;0.0;57.43;39.46891;-0.34094;69.4;NaN;;13.8;;0 / 31;17164;2021-10-26 23:11:01:080
-1.586;-0.093;-2.858;-0.651;5.406;-8.155;3.624;7.339;0.647;0.026;-2.184;-1.616;0.0;-12.8;-28.7;-32.8;228.9;-10.5;-119.8;0.0;59.32;39.46891;-0.34094;69.4;NaN;;13.8;;0 / 31;17214;2021-10-26 23:11:01:130
-1.467;-2.941;-2.415;-8.179;3.361;-4.247;3.509;12.121;1.259;1.359;-2.732;-2.079;0.0;-15.5;-27.7;-31.5;185.4;-35.4;163.0;0.0;59.32;39.46891;-0.34094;69.4;NaN;;13.8;;0 / 31;17263;2021-10-26 23:11:01:179
4.789;7.08;-4.363;6.886;-6.196;-3.218;-3.562;5.533;-2.542;3.131;-1.731;-0.115;0.0;-16.7;-27.3;-28.6;235.6;39.2;-115.0;0.0;59.32;39.46891;-0.34094;69.4;NaN;;13.8;;0 / 31;17313;2021-10-26 23:11:01:229
-1.409;31.61;-2.946;9.778;0.699;-0.201;1.369;-17.757;-1.495;-0.482;-0.882;0.559;0.0;-16.4;-28.6;-26.2;222.9;1.0;-94.6;0.0;59.32;39.46891;-0.34094;69.4;NaN;;13.8;;0 / 31;17363;2021-10-26 23:11:01:279
0.495;25.717;-4.533;9.653;-0.278;-1.7;0.828;-27.469;1.555;-1.36;-1.397;-0.062;0.0;-12.1;-31.6;-22.2;220.3;1.3;-97.5;0.0;59.32;39.46891;-0.34094;69.4;NaN;;13.8;;0 / 31;17413;2021-10-26 23:11:01:329
-0.332;5.682;-1.601;9.39;0.421;-2.801;1.793;2.899;-1.642;-1.36;-1.397;-0.062;0.0;-8.8;-33.5;-20.6;212.8;2.9;-93.0;0.0;59.32;39.46891;-0.34094;69.4;NaN;;13.8;;0 / 31;17464;2021-10-26 23:11:01:380
0.49;2.369;0.598;9.117;-2.279;2.806;0.787;6.468;-2.467;-1.36;-1.397;-0.062;0.0;-4.3;-34.6;-19.3;205.1;13.4;-72.9;0.0;59.32;39.46891;-0.34094;69.4;NaN;;13.8;;0 / 31;17513;2021-10-26 23:11:01:429
2.757;-3.272;-0.682;-7.168;-6.426;-1.867;-1.494;12.201;-2.414;-0.827;0.389;0.074;0.0;-3.7;-34.6;-19.1;142.4;38.9;90.3;0.0;56.13;39.46891;-0.34094;69.4;NaN;;13.8;;0 / 31;17564;2021-10-26 23:11:01:480
-1.072;1.199;-6.058;4.195;1.609;-8.72;1.944;13.187;6.938;5.627;0.987;1.22;0.0;-5.0;-34.0;-18.9;169.4;19.4;153.7;0.0;56.13;39.46891;-0.34094;69.4;NaN;;13.8;;0 / 31;17613;2021-10-26 23:11:01:529
-3.097;-0.481;8.135;-0.488;3.223;9.251;7.532;7.37;-13.052;5.396;2.515;4.306;0.0;-6.4;-33.0;-19.2;180.6;9.2;-18.7;0.0;56.13;39.46891;-0.34094;69.4;NaN;;13.8;;0 / 31;17663;2021-10-26 23:11:01:579
0.308;17.392;3.025;9.74;-0.421;1.073;6.897;0.511;-8.107;3.278;8.767;4.557;0.0;-7.7;-31.8;-19.1;209.1;2.5;-83.7;0.0;56.13;39.46891;-0.34094;69.4;NaN;;13.8;;0 / 31;17713;2021-10-26 23:11:01:629
14.857;31.581;0.234;8.672;-4.568;-0.311;-6.828;-24.528;-3.363;-2.946;0.669;-2.862;0.0;-8.0;-31.8;-18.6;209.6;14.4;-88.4;0.0;56.13;39.46891;-0.34094;69.4;NaN;;13.8;;0 / 31;17763;2021-10-26 23:11:01:679
1.759;14.56;-2.484;9.582;-1.245;-1.7;3.972;-6.178;0.536;-1.547;-0.021;-2.028;0.0;-7.6;-31.6;-18.7;209.9;10.2;-89.0;0.0;56.13;39.46891;-0.34094;69.4;NaN;;13.8;;0 / 31;17813;2021-10-26 23:11:01:729
-0.292;14.251;-1.572;9.778;0.259;-0.704;4.713;-6.645;1.586;-0.655;-0.831;-1.523;0.0;-8.3;-31.0;-18.7;211.3;7.4;-106.3;0.0;58.25;39.46891;-0.34094;69.4;NaN;;13.8;;0 / 31;17863;2021-10-26 23:11:01:779
-1.189;8.629;1.345;9.649;1.231;1.279;5.65;-1.529;-4.466;-0.598;-0.887;-1.286;0.0;-11.2;-28.2;-20.4;215.2;-7.2;-82.5;0.0;58.25;39.46891;-0.34094;69.4;NaN;;13.8;;0 / 31;17913;2021-10-26 23:11:01:829
-0.607;1.74;-1.673;7.293;1.954;-6.258;4.446;7.135;0.621;-0.801;-2.2;-1.778;0.0;-13.3;-26.1;-21.5;218.0;-24.1;-149.1;0.0;58.25;39.46891;-0.34094;69.4;NaN;;13.8;;0 / 31;17963;2021-10-26 23:11:01:879
-1.268;-0.967;-1.584;-4.664;5.473;-6.665;3.314;9.404;-1.366;-0.801;-2.2;-1.778;0.0;-15.4;-24.1;-22.0;228.5;-19.8;-124.6;0.0;58.25;39.46891;-0.34094;69.4;NaN;;13.8;;0 / 31;18014;2021-10-26 23:11:01:930
4.277;2.484;-2.099;4.985;-7.412;-4.046;-3.415;6.23;-0.232;0.869;-2.678;-2.273;0.0;-15.1;-24.1;-21.4;172.6;-26.1;136.4;0.0;58.25;39.46891;-0.34094;69.4;NaN;;13.8;;0 / 31;18064;2021-10-26 23:11:01:980
3.432;25.231;-1.395;9.749;-0.838;-0.646;-3.972;-4.709;-1.98;0.896;0.526;1.195;0.0;-13.3;-25.2;-20.2;221.9;32.7;-101.9;0.0;58.25;39.46896;-0.34097;69.4;NaN;;14.666;;0 / 31;18114;2021-10-26 23:11:02:030
2.757;38.772;-5.948;9.658;-0.493;-1.623;-1.802;-32.609;2.267;-1.026;-0.715;0.002;0.0;-10.4;-26.5;-19.3;218.9;-1.8;-93.5;0.0;56.93;39.46896;-0.34097;69.4;NaN;;14.666;;0 / 31;18163;2021-10-26 23:11:02:079
0.663;8.708;0.988;9.725;-0.469;1.154;0.206;-2.149;-3.508;-1.031;-0.551;0.016;0.0;-6.4;-27.7;-18.6;212.6;2.7;-83.2;0.0;56.93;39.46896;-0.34097;69.4;NaN;;14.666;;0 / 31;18213;2021-10-26 23:11:02:129
0.076;2.005;1.486;7.216;-0.211;6.637;1.161;7.094;-2.701;-0.837;-0.301;-0.438;0.0;-3.4;-28.0;-18.6;214.1;1.2;-90.3;0.0;56.93;39.46896;-0.34097;69.4;NaN;;14.666;;0 / 31;18264;2021-10-26 23:11:02:180
1.692;-2.7;1.522;-7.326;-4.899;4.305;-0.055;10.795;-2.808;-0.703;0.716;-0.273;0.0;-1.1;-27.3;-19.4;149.8;38.2;52.8;0.0;56.93;39.46896;-0.34097;69.4;NaN;;14.666;;0 / 31;18314;2021-10-26 23:11:02:230
-0.572;-4.416;-13.945;-1.872;0.848;-9.591;-0.219;16.457;8.469;6.714;1.364;4.747;0.0;-0.8;-26.9;-19.8;128.7;46.4;98.6;0.0;56.93;39.46896;-0.34097;69.4;NaN;;14.666;;0 / 31;18363;2021-10-26 23:11:02:279
-3.542;-0.701;11.123;0.824;2.595;9.424;2.254;4.438;-12.889;6.394;0.28;2.668;0.0;-1.4;-26.9;-19.2;181.8;-15.3;-5.0;0.0;56.93;39.46896;-0.34097;69.4;NaN;;14.666;;0 / 31;18413;2021-10-26 23:11:02:329
-1.455;6.084;5.108;7.317;2.155;6.167;7.931;0.376;-12.351;2.907;6.932;6.995;0.0;-1.3;-26.8;-18.6;195.2;-8.6;-23.1;0.0;56.93;39.46896;-0.34097;69.4;NaN;;14.666;;0 / 31;18464;2021-10-26 23:11:02:380
4.722;30.42;-4.028;7.12;-4.717;-4.822;-17.701;-27.954;19.273;-8.03;-5.012;-3.904;0.0;0.1;-27.2;-15.7;212.2;-1.9;-87.5;0.0;60.17;39.46896;-0.34097;69.4;NaN;;14.666;;0 / 31;18514;2021-10-26 23:11:02:430
-0.095;10.405;-7.714;6.967;0.283;-6.9;5.172;-3.681;9.012;-8.03;-5.012;-3.904;0.0;0.1;-27.3;-13.9;210.9;29.2;-80.8;0.0;60.17;39.46896;-0.34097;69.4;NaN;;14.666;;0 / 31;18564;2021-10-26 23:11:02:480
-0.217;16.145;5.055;9.72;0.101;1.288;3.007;-8.122;1.798;-0.738;1.472;-1.943;0.0;-2.5;-26.8;-12.1;203.1;-0.6;-82.5;0.0;60.17;39.46896;-0.34097;69.4;NaN;;14.666;;0 / 31;18613;2021-10-26 23:11:02:529
-0.521;9.521;-2.362;9.007;1.006;-3.749;4.55;-0.639;0.087;0.147;0.825;-1.302;0.0;-6.1;-25.9;-11.8;206.7;-3.8;-100.9;0.0;60.17;39.46896;-0.34097;69.4;NaN;;14.666;;0 / 31;18663;2021-10-26 23:11:02:579
-1.081;1.85;-0.694;8.384;3.701;-3.486;4.864;5.318;-0.186;-0.445;-1.192;-1.861;0.0;-11.8;-24.1;-12.7;214.6;-17.3;-110.9;0.0;60.17;39.46896;-0.34097;69.4;NaN;;14.666;;0 / 31;18713;2021-10-26 23:11:02:629
0.275;-3.758;-2.934;-8.313;0.891;-5.128;5.253;10.464;-0.847;-0.448;-3.489;-1.764;0.0;-16.0;-22.6;-12.9;257.1;-81.4;-139.9;0.0;60.17;39.46896;-0.34097;69.4;NaN;;14.666;;0 / 31;18764;2021-10-26 23:11:02:680
4.208;7.056;-4.112;8.495;-3.706;-3.199;2.107;7.023;-7.402;1.008;-3.413;-1.676;0.0;-20.0;-21.7;-14.2;218.2;22.2;-110.6;0.0;60.17;39.46896;-0.34097;69.4;NaN;;14.666;;0 / 31;18814;2021-10-26 23:11:02:730
5.907;20.085;-1.689;9.582;-1.863;-0.953;-5.199;-7.487;-2.408;-1.107;-0.697;1.433;0.0;-21.7;-22.4;-14.5;208.2;20.8;-92.8;0.0;60.17;39.46896;-0.34097;69.4;NaN;;14.666;;0 / 31;18864;2021-10-26 23:11:02:780
3.387;30.14;-2.108;9.62;-1.867;-0.316;0.348;-23.748;0.296;-1.365;-1.832;0.812;0.0;-20.6;-24.4;-14.8;215.1;2.7;-97.1;0.0;60.17;39.46896;-0.34097;69.4;NaN;;14.666;;0 / 31;18913;2021-10-26 23:11:02:829
-0.114;12.691;-0.617;9.744;-0.972;-0.555;-2.165;-3.101;-0.908;-0.992;-1.147;0.683;0.0;-16.7;-28.9;-15.4;207.1;19.6;-93.2;0.0;60.17;39.46896;-0.34097;69.4;NaN;;14.666;;0 / 31;18963;2021-10-26 23:11:02:879
-1.871;9.655;1.634;9.543;0.881;2.083;2.748;1.252;-3.538;-0.783;-1.05;-0.091;0.0;-12.1;-32.7;-15.9;205.5;-11.8;-81.4;0.0;60.17;39.46896;-0.34097;69.4;NaN;;14.666;;0 / 31;19013;2021-10-26 23:11:02:929
4.002;1.469;-0.885;3.912;-8.892;-1.346;-2.126;7.469;-1.455;-0.783;-1.05;-0.091;0.0;-10.3;-34.0;-16.9;203.6;49.6;-76.4;0.0;60.17;39.46896;-0.34097;69.4;NaN;;14.666;;0 / 31;19064;2021-10-26 23:11:02:980
5.452;-4.389;-1.953;-6.416;-7.412;-0.206;-2.9;13.632;-1.683;-0.783;-1.05;-0.091;0.0;-8.6;-34.6;-18.6;175.4;40.9;150.6;0.0;60.17;39.46896;-0.34097;69.4;NaN;;14.666;;0 / 31;19113;2021-10-26 23:11:03:029
-42.937;-18.093;-9.964;-3.658;8.921;-1.791;42.351;26.48;5.086;6.788;-2.548;-8.193;0.0;-8.3;-34.3;-19.9;133.5;46.7;85.9;0.0;60.65;39.46896;-0.34097;69.4;NaN;;14.666;;0 / 31;19163;2021-10-26 23:11:03:079
8.028;12.284;10.07;7.317;-3.237;5.674;-1.475;0.178;-15.143;7.351;-1.943;-5.948;0.0;-10.0;-33.6;-21.2;195.0;19.3;-52.2;0.0;60.65;39.46896;-0.34097;69.4;NaN;;14.666;;0 / 31;19213;2021-10-26 23:11:03:129
6.51;18.756;-2.764;9.103;-3.582;-0.713;-7.538;-10.233;-2.229;-3.052;1.302;1.702;0.0;-10.7;-33.4;-22.5;217.2;16.4;-111.2;0.0;60.65;39.46896;-0.34097;69.4;NaN;;14.666;;0 / 31;19263;2021-10-26 23:11:03:179
3.121;15.556;0.32;9.567;-2.093;-0.541;-7.887;-6.512;-1.986;-2.381;0.887;1.307;0.0;-8.2;-33.8;-23.5;216.2;23.5;-100.3;0.0;60.65;39.46896;-0.34097;69.4;NaN;;14.666;;0 / 31;19313;2021-10-26 23:11:03:229
3.652;14.29;1.469;9.151;-3.194;1.499;-5.536;-6.926;-6.986;-2.199;2.834;1.715;0.0;-4.9;-34.0;-24.5;211.7;12.4;-78.3;0.0;60.65;39.46896;-0.34097;69.4;NaN;;14.666;;0 / 31;19363;2021-10-26 23:11:03:279
8.234;14.498;1.361;8.418;-4.98;0.694;-5.205;-4.86;-6.29;-1.633;1.79;0.998;0.0;-0.4;-34.0;-26.1;220.5;30.5;-85.3;0.0;60.65;39.46896;-0.34097;69.4;NaN;;14.666;;0 / 31;19413;2021-10-26 23:11:03:329
8.688;10.33;-2.649;7.479;-6.048;-1.911;-7.164;-1.573;0.283;-1.081;2.43;0.982;0.0;-0.4;-32.8;-27.5;225.7;35.6;-88.3;0.0;58.14;39.46896;-0.34097;69.4;NaN;;14.666;;0 / 31;19463;2021-10-26 23:11:03:379
-0.299;10.165;-3.609;8.758;1.058;-4.281;2.142;-0.959;0.919;-0.703;2.759;1.023;0.0;-2.2;-30.4;-30.4;217.3;26.3;-66.1;0.0;58.14;39.46896;-0.34097;69.4;NaN;;14.666;;0 / 31;19514;2021-10-26 23:11:03:430
-4.681;5.921;5.301;5.88;5.234;5.851;7.825;1.967;-2.63;-0.317;0.484;-0.07;0.0;-3.5;-28.1;-32.5;219.3;-14.9;-127.6;0.0;58.14;39.46896;-0.34097;69.4;NaN;;14.666;;0 / 31;19563;2021-10-26 23:11:03:479
-3.635;6.015;6.683;5.339;4.362;6.977;6.483;3.446;-8.771;-0.317;0.484;-0.07;0.0;-6.4;-22.7;-36.2;249.9;-26.4;-37.4;0.0;58.14;39.46896;-0.34097;69.4;NaN;;14.666;;0 / 31;19613;2021-10-26 23:11:03:529
-1.311;6.934;8.681;5.89;-0.651;7.819;2.521;3.042;-8.99;-1.826;-3.209;-2.929;0.0;-9.1;-18.9;-37.3;232.6;-10.2;-39.4;0.0;58.14;39.46896;-0.34097;69.4;NaN;;14.666;;0 / 31;19664;2021-10-26 23:11:03:580
2.745;7.961;10.419;6.12;-0.311;7.657;1.678;0.687;-8.384;-2.882;-4.097;-3.174;0.0;-14.2;-14.4;-37.9;238.8;-8.6;-44.2;5.0;58.14;39.46896;-0.34097;69.4;NaN;;14.666;;0 / 31;19714;2021-10-26 23:11:03:630
0.761;5.62;4.045;7.532;-0.551;6.258;-3.295;2.607;-1.221;-2.699;-1.828;-0.61;0.0;-16.1;-12.8;-36.5;215.8;9.7;-43.4;5.0;55.14;39.46896;-0.34097;69.4;NaN;;14.666;;0 / 31;19763;2021-10-26 23:11:03:679
0.433;4.167;5.031;5.737;0.134;7.954;-2.22;4.523;-1.773;-2.034;-1.213;0.172;0.0;-17.0;-10.5;-35.1;215.2;-0.8;-35.8;5.0;55.14;39.46896;-0.34097;69.4;NaN;;14.666;;0 / 31;19814;2021-10-26 23:11:03:730
0.292;3.595;7.865;3.51;0.134;9.16;-0.442;6.351;-2.112;-2.043;-1.268;0.266;0.0;-17.6;-8.5;-34.4;161.9;11.4;-19.9;5.0;55.14;39.46896;-0.34097;69.4;NaN;;14.666;;0 / 31;19864;2021-10-26 23:11:03:780
1.91;3.669;5.227;5.693;-1.738;7.796;-0.439;4.673;1.411;-1.994;-1.468;-0.467;0.0;-18.5;-4.3;-33.8;203.3;2.9;-33.0;5.0;55.14;39.46896;-0.34097;69.4;NaN;;14.666;;0 / 31;19913;2021-10-26 23:11:03:829
1.704;3.145;6.967;3.802;-1.69;8.878;-1.425;4.523;0.049;-2.102;-1.527;-0.926;0.0;-19.4;-1.8;-33.8;160.7;19.2;-21.2;5.0;55.14;39.46896;-0.34097;69.4;NaN;;14.666;;0 / 31;19964;2021-10-26 23:11:03:880
1.417;3.243;4.978;4.927;4.951;6.886;0.533;3.537;2.309;-1.752;-1.093;-0.612;0.0;-19.7;1.5;-34.5;350.7;-30.3;-35.6;5.0;55.14;39.46896;-0.34097;69.4;NaN;;14.666;;0 / 31;20013;2021-10-26 23:11:03:929
0.536;3.904;12.071;3.294;-0.589;9.218;0.316;2.578;-3.52;-1.342;-0.638;0.045;0.0;-20.5;3.2;-34.4;72.3;0.2;-18.7;5.0;55.14;39.46896;-0.34097;69.4;NaN;;14.666;;0 / 31;20064;2021-10-26 23:11:03:980
2.194;4.298;8.49;4.482;-2.471;8.365;-1.253;1.512;-1.468;-1.211;-0.465;-0.023;0.0;-23.0;5.3;-33.3;86.7;6.6;-22.7;5.0;45.37;39.46896;-0.34097;69.4;NaN;;14.666;;0 / 31;20113;2021-10-26 23:11:04:029
2.185;4.303;7.463;4.697;-2.246;8.313;-1.319;1.141;-1.14;-0.823;-0.418;0.415;0.0;-25.9;6.1;-32.4;111.3;12.5;-25.7;5.0;45.37;39.46896;-0.34097;69.4;NaN;;14.666;;0 / 31;20164;2021-10-26 23:11:04:080
1.673;4.035;8.607;4.166;-1.786;8.696;-1.042;1.167;-0.719;-0.743;-0.445;0.149;0.0;-29.3;5.6;-30.1;95.7;10.5;-25.6;5.0;45.37;39.46896;-0.34097;69.4;NaN;;14.666;;0 / 31;20214;2021-10-26 23:11:04:130
1.788;4.397;7.808;4.554;-1.647;8.528;-0.362;0.437;-0.181;-0.454;-0.532;-0.112;0.0;-31.1;4.2;-29.2;100.5;9.4;-27.7;5.0;45.37;39.46896;-0.34097;69.4;NaN;;14.666;;0 / 31;20263;2021-10-26 23:11:04:179
1.677;4.885;8.775;4.817;-1.642;8.384;-0.246;-0.145;-0.205;-0.4;-0.588;-0.373;0.0;-32.3;1.8;-27.9;99.4;7.8;-27.1;5.0;45.37;39.46896;-0.34097;69.4;NaN;;14.666;;0 / 31;20314;2021-10-26 23:11:04:230
1.395;4.485;8.186;4.779;-1.575;8.418;0.162;0.298;0.356;-0.303;-0.528;-0.655;0.0;-32.9;0.6;-27.3;106.4;7.6;-30.5;5.0;45.37;39.46896;-0.34097;69.4;NaN;;14.666;;0 / 31;20364;2021-10-26 23:11:04:280
0.689;4.325;8.995;4.726;-0.713;8.562;0.592;-0.473;0.78;-0.213;-0.488;-0.836;0.0;-33.1;-0.7;-26.5;103.8;4.2;-28.9;5.0;43.94;39.46896;-0.34097;69.4;NaN;;14.666;;0 / 31;20413;2021-10-26 23:11:04:329
1.014;3.379;9.677;3.16;-1.03;9.227;0.628;1.199;-1.005;-0.196;-0.425;-1.09;0.0;-33.2;-1.3;-26.0;98.5;3.8;-19.9;5.0;43.94;39.46896;-0.34097;69.4;NaN;;14.666;;0 / 31;20464;2021-10-26 23:11:04:380
1.005;3.458;9.864;3.237;-0.862;9.218;0.063;1.238;-0.854;-0.428;-0.424;-1.218;0.0;-32.9;-1.1;-25.6;104.1;7.5;-19.6;5.0;43.94;39.46896;-0.34097;69.4;NaN;;14.666;;0 / 31;20513;2021-10-26 23:11:04:429
-0.227;1.699;9.892;1.757;0.215;9.644;1.191;2.443;-0.86;-0.82;-0.29;-1.451;0.0;-32.8;-1.0;-25.5;94.7;1.3;-20.0;5.0;43.94;39.46896;-0.34097;69.4;NaN;;14.666;;0 / 31;20563;2021-10-26 23:11:04:479
1.472;2.372;9.845;2.284;-1.298;9.448;-0.23;2.094;-0.841;-0.868;-0.239;-1.29;0.0;-32.5;-0.9;-25.1;101.3;7.6;-13.6;5.0;43.94;39.46896;-0.34097;69.4;NaN;;14.666;;0 / 31;20614;2021-10-26 23:11:04:530
0.15;2.637;9.687;2.595;-0.12;9.457;0.748;1.098;-0.546;-0.848;-0.226;-1.211;0.0;-32.2;-1.3;-24.7;93.8;1.1;-15.0;5.0;43.94;39.46896;-0.34097;69.4;NaN;;14.666;;0 / 31;20664;2021-10-26 23:11:04:580
0.215;2.228;9.943;2.102;-0.168;9.577;0.494;1.173;-0.506;-0.848;-0.226;-1.211;0.0;-31.7;-1.9;-24.5;96.7;1.6;-14.5;5.0;43.94;39.46896;-0.34097;69.4;NaN;;14.666;;0 / 31;20714;2021-10-26 23:11:04:630
-0.955;2.044;9.553;2.03;0.871;9.553;1.532;1.132;-0.288;-0.635;-0.109;-0.854;0.0;-31.4;-2.6;-24.1;92.8;-1.3;-11.2;5.0;43.79;39.46896;-0.34097;69.4;NaN;;14.666;;0 / 31;20764;2021-10-26 23:11:04:680
0.318;2.137;10.182;1.987;-0.345;9.596;1.008;1.067;-0.58;-0.461;0.148;-0.819;0.0;-30.4;-3.6;-23.8;97.3;-1.6;-11.3;5.0;43.79;39.46896;-0.34097;69.4;NaN;;14.666;;0 / 31;20814;2021-10-26 23:11:04:730
-0.452;1.996;8.897;2.193;0.421;9.548;0.767;0.897;0.57;-0.39;0.132;-0.806;0.0;-29.8;-4.1;-23.4;96.2;-2.6;-11.1;5.0;43.79;39.46896;-0.34097;69.4;NaN;;14.666;;0 / 31;20863;2021-10-26 23:11:04:779
0.081;2.187;8.624;2.389;-0.091;9.51;0.247;0.42;0.895;-0.331;0.09;-0.76;0.0;-29.0;-4.5;-23.0;101.8;-0.8;-15.0;5.0;43.79;39.46896;-0.34097;69.4;NaN;;14.666;;0 / 31;20914;2021-10-26 23:11:04:830
-0.035;1.934;7.973;2.193;0.062;9.558;-0.259;0.333;-0.644;-0.229;-0.015;-0.616;0.0;-28.6;-4.6;-22.9;104.5;4.2;-12.2;5.0;43.79;39.46896;-0.34097;69.4;NaN;;14.666;;0 / 31;20964;2021-10-26 23:11:04:880
0.988;3.571;10.321;3.323;-0.9;9.184;-0.249;-0.19;-1.878;-0.114;-0.153;-0.426;0.0;-27.8;-5.0;-22.0;112.4;5.3;-19.9;5.0;43.79;39.46896;-0.34097;69.4;NaN;;14.666;;0 / 31;21013;2021-10-26 23:11:04:929
0.832;2.376;8.36;2.763;-0.967;9.361;-0.545;0.335;1.593;-0.059;-0.241;-0.332;0.0;-27.4;-5.7;-22.0;111.7;4.5;-14.7;5.0;43.79;39.46896;-0.34097;69.4;NaN;;14.666;;0 / 31;21063;2021-10-26 23:11:04:979
0.706;3.298;8.794;3.476;-0.589;9.151;-0.835;-0.635;0.967;-0.019;-0.267;-0.287;0.0;-26.6;-6.7;-21.4;116.2;3.4;-20.8;5.0;45.07;39.46896;-0.34097;69.4;NaN;;14.666;;0 / 31;21114;2021-10-26 23:11:05:030
0.686;2.965;8.923;3.227;-0.934;9.213;-0.36;-0.367;0.631;0.298;-0.125;-0.159;0.0;-25.7;-8.2;-21.1;114.2;0.6;-17.5;5.0;45.07;39.46896;-0.34097;69.4;NaN;;14.666;;0 / 31;21163;2021-10-26 23:11:05:079
0.885;3.252;8.957;3.328;-0.91;9.179;-0.645;-0.543;0.725;0.264;-0.149;-0.269;0.0;-25.0;-8.8;-21.0;125.3;5.3;-19.9;5.0;45.07;39.46896;-0.34097;69.4;NaN;;14.666;;0 / 31;21213;2021-10-26 23:11:05:129
0.591;3.353;8.957;3.515;-0.618;9.131;-0.307;-0.493;0.367;0.258;-0.164;-0.344;0.0;-24.1;-9.5;-20.2;123.2;3.7;-18.6;5.0;45.07;39.46896;-0.34097;69.4;NaN;;14.666;;0 / 31;21264;2021-10-26 23:11:05:180
0.153;3.566;9.572;3.433;-0.172;9.184;0.048;-0.839;0.12;0.226;-0.251;-0.394;0.0;-23.0;-10.1;-20.1;129.3;2.4;-22.5;5.0;45.07;39.46896;-0.34097;69.4;NaN;;14.666;;0 / 31;21314;2021-10-26 23:11:05:230
0.483;3.75;8.796;3.883;-0.508;8.993;-0.06;-0.765;0.495;0.249;-0.217;-0.358;0.0;-22.3;-10.3;-19.7;127.7;1.9;-21.4;5.0;45.07;39.46896;-0.34097;69.4;NaN;;14.666;;0 / 31;21363;2021-10-26 23:11:05:279
-0.028;4.203;8.966;4.142;0.11;8.887;0.142;-0.969;0.417;0.297;-0.155;-0.292;0.0;-20.6;-10.5;-19.6;132.5;-0.6;-25.0;5.0;45.07;39.46896;-0.34097;69.4;NaN;;14.666;;0 / 31;21413;2021-10-26 23:11:05:329
0.227;4.514;9.193;4.233;-0.306;8.839;0.688;-0.972;0.542;0.33;-0.023;-0.218;0.0;-19.4;-10.2;-19.3;137.3;-1.5;-26.3;5.0;48.01;39.46896;-0.34097;69.4;NaN;;14.666;;0 / 31;21464;2021-10-26 23:11:05:380
0.397;4.038;9.775;3.749;-0.33;9.055;-0.157;-0.545;-1.083;0.335;0.054;-0.177;0.0;-17.5;-9.7;-18.9;140.7;3.2;-22.7;5.0;48.01;39.46896;-0.34097;69.4;NaN;;14.666;;0 / 31;21513;2021-10-26 23:11:05:429
0.399;4.387;7.853;4.736;-0.781;8.552;0.159;-0.659;1.392;0.253;0.085;-0.182;0.0;-16.4;-9.1;-19.0;138.1;-0.3;-23.6;5.0;48.01;39.46896;-0.34097;69.4;NaN;;14.666;;0 / 31;21564;2021-10-26 23:11:05:480
1.732;3.329;8.238;3.567;-1.954;8.926;-1.339;0.378;0.851;0.205;-0.173;-0.008;0.0;-16.1;-8.0;-18.9;149.9;10.2;-23.7;5.0;48.01;39.46896;-0.34097;69.4;NaN;;14.666;;0 / 31;21614;2021-10-26 23:11:05:530
0.682;2.896;10.493;2.701;-0.713;9.4;-0.661;0.708;-1.12;0.112;-0.263;0.152;0.0;-16.6;-7.3;-19.3;137.7;10.5;-18.4;5.0;48.01;39.46896;-0.34097;69.4;NaN;;14.666;;0 / 31;21663;2021-10-26 23:11:05:579
0.397;2.111;9.569;2.265;-0.67;9.519;0.082;1.557;-0.471;-0.382;-0.345;-0.07;0.0;-17.8;-5.6;-19.4;114.7;0.0;-11.1;5.0;48.01;39.46896;-0.34097;69.4;NaN;;14.666;;0 / 31;21713;2021-10-26 23:11:05:629
2.046;3.899;8.664;4.013;-2.035;8.715;-1.042;-0.223;0.847;-0.382;-0.345;-0.07;0.0;-18.8;-4.0;-19.7;124.6;6.2;-17.7;5.0;48.54;39.46896;-0.34097;69.4;NaN;;14.666;;0 / 31;21764;2021-10-26 23:11:05:680
2.439;3.801;8.578;3.663;-2.49;8.748;-1.4;-0.382;1.131;-0.255;-0.024;0.486;0.0;-21.4;-2.2;-19.9;126.7;14.7;-22.7;5.0;48.54;39.46896;-0.34097;69.4;NaN;;14.666;;0 / 31;21813;2021-10-26 23:11:05:729
1.9;3.039;8.439;3.108;-2.093;9.064;-0.93;0.426;0.627;0.245;-0.068;1.279;0.0;-23.5;-1.4;-19.6;113.8;12.2;-20.8;5.0;48.54;39.46896;-0.34097;69.4;NaN;;14.666;;0 / 31;21864;2021-10-26 23:11:05:780
3.334;4.698;8.09;4.386;-2.907;8.274;-1.543;-0.928;2.998;0.466;-0.062;1.424;0.0;-26.9;-1.2;-18.7;173.2;26.3;-50.6;5.0;48.54;39.46896;-0.34097;69.4;NaN;;14.666;;0 / 31;21913;2021-10-26 23:11:05:829
2.747;3.939;8.681;4.362;-2.5;8.418;-1.291;-0.289;-0.007;0.447;-0.152;1.17;0.0;-28.7;-1.3;-18.0;112.6;15.1;-21.9;5.0;48.54;39.46896;-0.34097;69.4;NaN;;14.666;;0 / 31;21964;2021-10-26 23:11:05:880