sep=;
ACCELEROMETER X (m/s²);ACCELEROMETER Y (m/s²);ACCELEROMETER Z (m/s²);GRAVITY X (m/s²);GRAVITY Y (m/s²);GRAVITY Z (m/s²);LINEAR ACCELERATION X (m/s²);LINEAR ACCELERATION Y (m/s²);LINEAR ACCELERATION Z (m/s²);GYROSCOPE X (rad/s);GYROSCOPE Y (rad/s);GYROSCOPE Z (rad/s);LIGHT (lux);MAGNETIC FIELD X (μT);MAGNETIC FIELD Y (μT);MAGNETIC FIELD Z (μT);ORIENTATION Z (azimuth °);ORIENTATION X (pitch °);ORIENTATION Y (roll °);PROXIMITY (m);SOUND LEVEL (dB);LOCATION Latitude : ;LOCATION Longitude : ;LOCATION Altitude ( m);LOCATION Altitude-google ( m);LOCATION Speed ( Kmh);LOCATION Accuracy ( m);LOCATION ORIENTATION (°);Satellites in range;Time since start in ms ;YYYY-MO-DD HH-MI-SS_SSS
1.376;-2.6111;2.915;-1.992;-1.245;9.5241;-0.4479;4.0007;3.6588;-0.4517;-0.4284;0.6918;191.0;-1.69;16.74;-31.31;32.44;7.29;11.81;5.0;53.015;39.468555;-0.339768;7.4;NaN;3.83;4.3;27.82;14 / 33;18;2021-10-20 19:31:08:828
1.376;-2.6111;2.915;-3.237;-9.1794;1.2163;-0.4479;4.0007;3.6588;-1.302;-0.5719;1.4908;191.0;-1.69;16.74;-31.31;32.44;7.29;11.81;5.0;53.015;39.468555;-0.339768;7.4;NaN;3.83;4.3;27.82;14 / 33;68;2021-10-20 19:31:08:878
4.9181;-1.113;-1.223;-1.5131;-8.5042;-4.6448;-2.3965;2.9504;9.0888;0.5027;-4.0003;6.1386;191.0;-6.49;14.89;-31.74;32.44;7.29;11.81;5.0;53.015;39.468555;-0.339768;7.4;NaN;3.83;4.3;27.82;14 / 33;119;2021-10-20 19:31:08:929
10.419;-0.629;-3.0251;-1.5131;-8.5042;-4.6448;-5.3664;1.5966;11.3803;0.5027;-4.0003;6.1386;191.0;-13.26;10.61;-31.8;356.04;60.13;161.96;5.0;53.015;39.468555;-0.339768;7.4;NaN;3.83;4.3;27.82;14 / 33;169;2021-10-20 19:31:08:979
30.159;5.8541;27.294;0.5076;-8.0876;5.5258;-23.1512;-4.8825;-20.4854;1.691;-4.0809;2.0515;191.0;-13.26;10.61;-31.8;356.04;60.13;161.96;5.0;53.015;39.468555;-0.339768;7.4;NaN;3.83;4.3;27.82;14 / 33;218;2021-10-20 19:31:09:028
12.8441;7.8311;12.554;3.0263;-6.9671;6.201;-23.1512;-4.8825;-20.4854;1.691;-4.0809;2.0515;191.0;-18.49;10.86;-27.84;356.04;60.13;161.96;5.0;53.015;39.468555;-0.339768;7.4;NaN;3.83;4.3;27.82;14 / 33;268;2021-10-20 19:31:09:078
-1.452;5.517;4.562;5.9568;-4.9895;5.9855;0.9521;-5.3861;-1.0751;0.209;-0.701;-0.3899;212.0;-22.8;14.34;-22.01;169.26;30.58;-44.86;5.0;53.742;39.468555;-0.339768;7.4;NaN;3.83;4.3;27.82;14 / 33;319;2021-10-20 19:31:09:129
-1.452;5.517;4.562;4.3479;8.0637;3.5003;0.9521;-5.3861;-1.0751;-1.4263;-0.2069;-2.6172;212.0;-22.8;14.34;-22.01;169.26;30.58;-44.86;5.0;53.742;39.468555;-0.339768;7.4;NaN;3.83;4.3;27.82;14 / 33;369;2021-10-20 19:31:09:179
-6.893;3.966;1.596;4.4389;8.1211;-3.2465;13.494;-1.3186;3.548;-1.4263;-0.2069;-2.6172;212.0;-26.4;14.21;-19.01;2.5;-55.31;-51.16;5.0;53.742;39.468555;-0.339768;7.4;NaN;3.83;4.3;27.82;14 / 33;418;2021-10-20 19:31:09:228
-6.888;1.9931;1.139;4.4389;8.1211;-3.2465;11.8939;3.6124;5.1657;1.7794;1.0013;-6.9948;212.0;-28.74;11.94;-17.81;298.68;-55.9;-126.18;5.0;53.742;39.468555;-0.339768;7.4;NaN;3.83;4.3;27.82;14 / 33;468;2021-10-20 19:31:09:278
3.03;5.16;5.187;7.1299;1.7957;6.4931;-1.5132;2.5266;0.7388;2.0048;1.6552;-5.5813;212.0;-28.74;11.94;-17.81;298.68;-55.9;-126.18;5.0;53.742;39.468555;-0.339768;7.4;NaN;3.83;4.3;27.82;14 / 33;519;2021-10-20 19:31:09:329
3.588;13.308;10.431;7.3646;-2.399;6.0142;-1.5132;2.5266;0.7388;2.0048;1.6552;-5.5813;212.0;-28.69;10.31;-19.2;70.83;14.16;-50.76;5.0;53.742;39.468555;-0.339768;7.4;NaN;3.83;4.3;27.82;14 / 33;569;2021-10-20 19:31:09:379
38.487;14.4641;23.9;3.6344;-6.7421;6.1244;-16.9621;-9.6538;-17.3234;-1.2046;-2.2282;-0.7406;212.0;-28.69;10.31;-19.2;70.83;14.16;-50.76;5.0;58.344;39.468555;-0.339768;7.4;NaN;3.83;4.3;27.82;14 / 33;619;2021-10-20 19:31:09:429
38.487;14.4641;23.9;1.1971;-9.2943;2.8874;-28.6975;-1.3241;-5.6826;-1.2046;-2.2282;-0.7406;128.0;-27.49;7.99;-22.61;70.83;14.16;-50.76;5.0;58.344;39.468555;-0.339768;7.4;NaN;3.83;4.3;27.82;14 / 33;669;2021-10-20 19:31:09:479
8.574;-3.6259;5.105;-9.4858;-2.2649;1.0295;-0.0841;13.922;1.377;-1.1173;-2.2307;1.9037;128.0;-25.26;2.64;-26.4;156.96;71.41;-22.52;5.0;58.344;39.468555;-0.339768;7.4;NaN;3.83;4.3;27.82;14 / 33;718;2021-10-20 19:31:09:528
2.1251;-8.277;-5.33;-9.4858;-2.2649;1.0295;-0.0841;13.922;1.377;0.9947;-0.6236;4.738;128.0;-25.26;2.64;-26.4;156.96;71.41;-22.52;5.0;58.344;39.468555;-0.339768;7.4;NaN;3.83;4.3;27.82;14 / 33;769;2021-10-20 19:31:09:579
-1.565;-9.256;-9.713;-7.0437;-0.8811;-6.766;5.419;14.2432;13.1711;0.9947;-0.6236;4.738;128.0;-22.74;-4.74;-29.4;108.69;5.15;133.85;5.0;58.344;39.468555;-0.339768;7.4;NaN;3.83;4.3;27.82;14 / 33;819;2021-10-20 19:31:09:629
-0.8659;-8.609;-5.309;-7.0581;2.6767;-6.2584;10.2966;10.8459;3.8571;6.3095;-6.5197;6.8969;128.0;-22.74;-8.34;-30.3;158.04;-15.84;131.56;5.0;58.344;39.468544;-0.33976;7.5;NaN;4.12;4.1;26.03;13 / 33;869;2021-10-20 19:31:09:679
16.659;0.473;-1.8859;-2.7725;-9.0788;-2.4565;10.2966;10.8459;3.8571;3.7594;-5.3072;3.4075;128.0;-22.74;-8.34;-30.3;158.04;-15.84;131.56;5.0;57.182;39.468544;-0.33976;7.5;NaN;4.12;4.1;26.03;13 / 33;918;2021-10-20 19:31:09:728
40.9331;16.389;30.162;2.2362;-7.5609;5.8323;-7.9484;-0.7821;-2.6167;3.7594;-5.3072;3.4075;153.0;-25.5;-4.91;-28.86;7.49;67.8;131.54;5.0;57.182;39.468544;-0.33976;7.5;NaN;4.12;4.1;26.03;13 / 33;969;2021-10-20 19:31:09:779
40.9331;16.389;30.162;4.549;-7.4172;4.5298;-30.1355;-19.7509;-29.4558;2.742;3.6981;-0.9175;153.0;-25.5;-4.91;-28.86;7.49;67.8;131.54;5.0;57.182;39.468544;-0.33976;7.5;NaN;4.12;4.1;26.03;13 / 33;1018;2021-10-20 19:31:09:828
8.897;10.362;6.249;8.7963;2.5809;3.4907;-30.1355;-19.7509;-29.4558;-3.7269;2.6087;-2.5974;153.0;-29.94;4.09;-23.7;170.99;49.12;-45.12;5.0;57.182;39.468544;-0.33976;7.5;NaN;4.12;4.1;26.03;13 / 33;1069;2021-10-20 19:31:09:879
-2.293;6.087;0.6341;8.7963;2.5809;3.4907;11.6654;-5.5595;-3.2514;-3.7269;2.6087;-2.5974;153.0;-33.06;10.56;-18.66;170.99;49.12;-45.12;5.0;57.182;39.468544;-0.33976;7.5;NaN;4.12;4.1;26.03;13 / 33;1119;2021-10-20 19:31:09:929
-2.072;6.2561;0.186;9.6726;1.3695;0.8859;10.2506;-3.5474;-0.1506;-3.9181;0.3794;-3.7499;153.0;-33.06;10.56;-18.66;170.99;49.12;-45.12;5.0;57.182;39.468544;-0.33976;7.5;NaN;4.12;4.1;26.03;13 / 33;1169;2021-10-20 19:31:09:979
-4.806;3.401;-0.009;5.5785;7.9296;-1.4796;10.2506;-3.5474;-0.1506;-3.9181;0.3794;-3.7499;153.0;-34.56;11.21;-15.54;321.4;-8.03;-84.77;5.0;57.182;39.468544;-0.33976;7.5;NaN;4.12;4.1;26.03;13 / 33;1219;2021-10-20 19:31:10:029
4.6691;5.862;6.18;7.3694;-0.5315;6.45;11.5775;3.6819;0.3566;-0.1567;-1.0262;-6.9641;153.0;-36.0;10.14;-14.4;58.68;3.11;-48.81;5.0;56.891;39.468544;-0.33976;7.5;NaN;4.12;4.1;26.03;13 / 33;1269;2021-10-20 19:31:10:079
4.6691;5.862;6.18;8.5186;-2.6719;4.0654;-4.349;0.2016;-7.6698;-2.0343;-0.8;-3.1575;102.0;-36.0;10.14;-14.4;58.68;3.11;-48.81;5.0;56.891;39.468544;-0.33976;7.5;NaN;4.12;4.1;26.03;13 / 33;1319;2021-10-20 19:31:10:129
7.8791;17.3771;12.8561;2.9688;-7.4843;5.6024;-4.9487;-8.1074;-11.4654;-2.0343;-0.8;-3.1575;102.0;-36.19;7.56;-16.74;58.68;3.11;-48.81;5.0;56.891;39.468544;-0.33976;7.5;NaN;4.12;4.1;26.03;13 / 33;1369;2021-10-20 19:31:10:179
40.4951;12.9611;13.5041;2.9688;-7.4843;5.6024;-4.9487;-8.1074;-11.4654;-3.4188;-1.2009;0.6897;102.0;-36.19;7.56;-16.74;58.68;3.11;-48.81;5.0;56.891;39.468544;-0.33976;7.5;NaN;4.12;4.1;26.03;13 / 33;1419;2021-10-20 19:31:10:229
4.2101;-7.097;3.042;-1.0678;-9.7013;0.972;-9.2446;9.7619;1.653;-2.0035;-0.931;2.4167;102.0;-35.34;3.66;-19.56;137.34;49.73;-27.92;5.0;56.891;39.468544;-0.33976;7.5;NaN;4.12;4.1;26.03;13 / 33;1468;2021-10-20 19:31:10:278
1.79;-10.283;-7.527;-9.6295;-0.6177;-1.743;5.077;17.6864;5.545;-2.0035;-0.931;2.4167;102.0;-32.1;-3.41;-23.46;137.34;49.73;-27.92;5.0;56.891;39.468544;-0.33976;7.5;NaN;4.12;4.1;26.03;13 / 33;1518;2021-10-20 19:31:10:328
-1.771;-10.536;-12.449;-5.7174;0.1197;-7.9679;5.077;17.6864;5.545;8.1895;0.5365;5.7109;102.0;-32.1;-3.41;-23.46;137.34;49.73;-27.92;5.0;58.851;39.468544;-0.33976;7.5;NaN;4.12;4.1;26.03;13 / 33;1569;2021-10-20 19:31:10:379
-1.771;-10.536;-12.449;-9.0214;0.0096;-3.8451;10.1326;15.5672;11.5218;8.1895;0.5365;5.7109;102.0;-28.74;-10.39;-26.21;218.77;-0.7;144.34;5.0;58.851;39.468544;-0.33976;7.5;NaN;4.12;4.1;26.03;13 / 33;1618;2021-10-20 19:31:10:428
4.215;-8.758;-2.214;0.972;-9.754;-0.316;4.0198;10.6912;-2.7658;6.2125;-5.4047;3.9252;116.0;-28.74;-10.39;-26.21;218.77;-0.7;144.34;5.0;58.851;39.468544;-0.33976;7.5;NaN;4.12;4.1;26.03;13 / 33;1668;2021-10-20 19:31:10:478
18.375;7.235;7.245;0.972;-9.754;-0.316;4.0198;10.6912;-2.7658;4.4491;-0.8757;0.7304;116.0;-29.64;-10.44;-25.61;237.79;84.02;-108.01;5.0;58.851;39.468544;-0.33976;7.5;NaN;4.12;4.1;26.03;13 / 33;1719;2021-10-20 19:31:10:529
38.3411;20.918;28.137;3.8978;-7.2927;5.2816;-22.3965;-16.7478;-28.3775;4.4491;-0.8757;0.7304;116.0;-32.89;-2.94;-21.71;237.79;84.02;-108.01;5.0;58.851;39.468544;-0.33976;7.5;NaN;4.12;4.1;26.03;13 / 33;1769;2021-10-20 19:31:10:579
0.162;5.993;2.735;5.861;-5.1715;5.9233;1.2242;-8.7164;-12.1105;-1.9096;4.4188;-2.0958;116.0;-32.89;-2.94;-21.71;237.79;84.02;-108.01;5.0;58.851;39.468544;-0.33976;7.5;NaN;4.12;4.1;26.03;13 / 33;1819;2021-10-20 19:31:10:629
-1.929;4.263;-5.06;6.3494;3.9744;-6.3303;1.2242;-8.7164;-12.1105;-6.0142;1.0528;-2.7567;116.0;-35.76;4.61;-17.1;138.62;31.82;-44.7;5.0;54.445;39.468548;-0.339767;7.3;NaN;3.88;4.2;358.81;13 / 33;1868;2021-10-20 19:31:10:678
-1.929;4.263;-5.06;6.3494;3.9744;-6.3303;11.0849;-0.8473;4.2729;-6.0142;1.0528;-2.7567;116.0;-37.2;6.36;-15.11;138.62;31.82;-44.7;5.0;54.445;39.468548;-0.339767;7.3;NaN;3.88;4.2;358.81;13 / 33;1919;2021-10-20 19:31:10:729
-6.493;1.503;-2.329;2.0877;9.0261;-3.2226;14.3454;4.3248;1.6454;0.0414;-2.2502;-6.5648;118.0;-37.2;6.36;-15.11;138.62;31.82;-44.7;5.0;54.445;39.468548;-0.339767;7.3;NaN;3.88;4.2;358.81;13 / 33;1968;2021-10-20 19:31:10:778
-3.576;1.208;1.3091;2.9497;8.7819;3.2178;14.3454;4.3248;1.6454;0.0414;-2.2502;-6.5648;118.0;-37.44;4.86;-14.76;26.41;-63.57;-42.51;5.0;54.445;39.468548;-0.339767;7.3;NaN;3.88;4.2;358.81;13 / 33;2018;2021-10-20 19:31:10:828
4.437;9.981;6.149;7.8099;-3.4668;4.8123;2.6906;5.4775;-5.3727;0.532;-1.8143;-7.0254;118.0;-37.09;2.76;-16.01;152.87;20.7;-58.36;5.0;54.445;39.468548;-0.339767;7.3;NaN;3.88;4.2;358.81;13 / 33;2069;2021-10-20 19:31:10:879
30.834;24.936;43.5761;4.1515;-5.1332;7.2544;-1.0007;-6.4345;-9.9701;-4.0051;-0.8854;-0.5765;118.0;-37.09;2.76;-16.01;152.87;20.7;-58.36;5.0;54.445;39.468548;-0.339767;7.3;NaN;3.88;4.2;358.81;13 / 33;2119;2021-10-20 19:31:10:929
18.4781;5.775;3.8411;2.8635;-9.1842;1.9106;-37.4977;-10.6395;-34.8835;-4.0051;-0.8854;-0.5765;118.0;-35.29;1.56;-19.26;127.42;31.56;-29.78;5.0;54.445;39.468548;-0.339767;7.3;NaN;3.88;4.2;358.81;13 / 33;2168;2021-10-20 19:31:10:978
18.4781;-9.0551;-2.7619;2.8635;-9.1842;1.9106;-37.4977;-10.6395;-34.8835;-3.4523;-1.2181;2.166;118.0;-35.29;1.56;-19.26;127.42;31.56;-29.78;5.0;64.467;39.468548;-0.339767;7.3;NaN;3.88;4.2;358.81;13 / 33;2218;2021-10-20 19:31:11:028
2.649;-9.0551;-2.7619;-9.0357;-2.6384;-2.7485;1.315;17.4303;1.6177;-2.5406;-0.8304;3.3413;118.0;-31.5;-3.19;-24.0;62.1;15.61;106.92;5.0;64.467;39.468548;-0.339767;7.3;NaN;3.88;4.2;358.81;13 / 33;2268;2021-10-20 19:31:11:078
-0.363;-10.05;-11.6681;-6.3973;0.2251;-7.4316;1.9897;17.2512;11.4099;-2.5406;-0.8304;3.3413;121.0;-28.56;-10.74;-27.06;200.14;-1.31;139.28;5.0;64.467;39.468548;-0.339767;7.3;NaN;3.88;4.2;358.81;13 / 33;2318;2021-10-20 19:31:11:128
0.78;-8.255;-5.0501;-8.3414;-0.7853;-5.0949;6.6128;13.7247;1.6276;8.9665;-4.7189;4.6916;121.0;-28.56;-10.74;-27.06;200.14;-1.31;139.28;5.0;64.467;39.468548;-0.339767;7.3;NaN;3.88;4.2;358.81;13 / 33;2368;2021-10-20 19:31:11:178
11.5151;-0.083;0.296;-0.0718;-9.8019;0.2442;6.6128;13.7247;1.6276;5.8109;-2.3776;2.09;121.0;-28.8;-12.41;-26.7;200.14;-1.31;139.28;5.0;64.467;39.468548;-0.339767;7.3;NaN;3.88;4.2;358.81;13 / 33;2418;2021-10-20 19:31:11:228
28.4501;16.0541;26.195;3.7589;-6.6607;6.1339;-6.3822;-2.1276;-9.0374;5.8109;-2.3776;2.09;121.0;-30.84;-7.14;-25.01;156.41;42.8;-31.5;5.0;64.467;39.468548;-0.339767;7.3;NaN;3.88;4.2;358.81;13 / 33;2468;2021-10-20 19:31:11:278
18.821;12.789;11.798;4.889;-7.2018;4.5155;-25.8125;-17.9826;-23.8029;1.7531;5.6728;-1.1536;121.0;-30.84;-7.14;-25.01;156.41;42.8;-31.5;5.0;57.938;39.468548;-0.339767;7.3;NaN;3.88;4.2;358.81;13 / 33;2518;2021-10-20 19:31:11:328
18.821;12.789;11.798;4.889;-7.2018;4.5155;-25.8125;-17.9826;-23.8029;1.7531;5.6728;-1.1536;121.0;-33.84;-0.06;-20.81;165.14;47.26;-47.27;5.0;57.938;39.468548;-0.339767;7.3;NaN;3.88;4.2;358.81;13 / 33;2569;2021-10-20 19:31:11:379
-5.103;4.401;-1.081;6.3303;7.331;-1.5467;12.2006;-3.2428;-2.5145;-5.6316;1.8286;-2.2786;121.0;-33.84;-0.06;-20.81;165.14;47.26;-47.27;5.0;57.938;39.468548;-0.339767;7.3;NaN;3.88;4.2;358.81;13 / 33;2619;2021-10-20 19:31:11:429
-3.8201;4.205;2.9771;6.426;5.8419;4.549;12.3919;0.5567;-3.041;-4.2333;0.0128;-3.4151;120.0;-36.24;3.11;-16.14;316.4;-48.37;-103.73;5.0;57.938;39.468548;-0.339767;7.3;NaN;3.88;4.2;358.81;13 / 33;2669;2021-10-20 19:31:11:479
-5.3209;3.719;-1.6579;5.4492;7.7859;-2.4181;11.1916;4.1289;1.7888;-4.2333;0.0128;-3.4151;120.0;-37.74;3.96;-13.31;313.41;-52.56;-113.93;5.0;57.938;39.468548;-0.339767;7.3;NaN;3.88;4.2;358.81;13 / 33;2719;2021-10-20 19:31:11:529
1.682;5.316;6.486;6.0956;-1.9201;7.4364;11.1916;4.1289;1.7888;-0.1218;-0.6519;-7.2874;120.0;-37.74;3.96;-13.31;313.41;-52.56;-113.93;5.0;57.938;39.468548;-0.339767;7.3;NaN;3.88;4.2;358.81;13 / 33;2768;2021-10-20 19:31:11:578
6.17;18.294;12.822;6.0956;-1.9201;7.4364;-2.6205;0.9318;-9.1651;-2.0465;-1.2484;-2.2844;120.0;-38.4;4.26;-12.24;313.41;-52.56;-113.93;5.0;62.309;39.468548;-0.339767;7.3;NaN;3.88;4.2;358.81;13 / 33;2819;2021-10-20 19:31:11:629
6.17;18.294;12.822;5.0661;-5.5498;6.2968;-22.6557;-12.4959;-25.3785;-2.0465;-1.2484;-2.2844;120.0;-36.84;2.04;-16.01;134.6;34.48;-38.82;5.0;62.309;39.46855;-0.339762;7.4;NaN;5.74;4.0;11.63;13 / 33;2868;2021-10-20 19:31:11:678
36.2561;16.298;21.573;2.9305;-8.8346;3.0933;-22.6557;-12.4959;-25.3785;-3.1463;-1.8294;1.4399;120.0;-36.84;2.04;-16.01;134.6;34.48;-38.82;5.0;62.309;39.46855;-0.339762;7.4;NaN;5.74;4.0;11.63;13 / 33;2918;2021-10-20 19:31:11:728
2.582;-6.714;1.656;-8.9447;-3.9313;-0.8428;-7.2661;9.7662;0.2175;-3.1463;-1.8294;1.4399;124.0;-33.79;-3.71;-21.9;165.59;64.25;-43.45;5.0;62.309;39.46855;-0.339762;7.4;NaN;5.74;4.0;11.63;13 / 33;2969;2021-10-20 19:31:11:779
3.1091;-9.095;-7.781;-7.0485;-0.2298;-6.8187;-0.3659;15.2247;8.5186;-2.2038;-1.2467;2.2224;124.0;-33.79;-3.71;-21.9;165.59;64.25;-43.45;5.0;62.309;39.46855;-0.339762;7.4;NaN;5.74;4.0;11.63;13 / 33;3019;2021-10-20 19:31:11:829
-1.089;-10.0909;-11.391;-7.0485;-0.2298;-6.8187;8.7723;18.2203;13.2937;10.4566;-1.8507;5.4132;124.0;-30.66;-11.34;-24.3;203.12;1.34;134.05;5.0;62.309;39.46855;-0.339762;7.4;NaN;5.74;4.0;11.63;13 / 33;3069;2021-10-20 19:31:11:879
5.909;-6.1991;-5.988;-7.1635;-1.9393;-6.4117;8.7723;18.2203;13.2937;10.4566;-1.8507;5.4132;124.0;-29.59;-14.16;-24.06;199.09;11.4;131.83;5.0;62.309;39.46855;-0.339762;7.4;NaN;5.74;4.0;11.63;13 / 33;3118;2021-10-20 19:31:11:928
5.909;-6.1991;-5.988;-4.7405;-8.1259;-2.7677;1.7531;9.9313;1.1116;6.6916;-3.9429;2.4153;124.0;-29.59;-14.16;-24.06;199.09;11.4;131.83;5.0;58.773;39.46855;-0.339762;7.4;NaN;5.74;4.0;11.63;13 / 33;3169;2021-10-20 19:31:11:979
15.6491;6.161;13.44;3.7445;-6.0334;6.766;-8.4259;-5.1294;-19.9968;5.3065;3.5366;-0.0077;124.0;-30.96;-10.14;-23.51;10.84;55.96;120.28;5.0;58.773;39.46855;-0.339762;7.4;NaN;5.74;4.0;11.63;13 / 33;3218;2021-10-20 19:31:12:028
34.425;22.404;26.351;3.7445;-6.0334;6.766;-8.4259;-5.1294;-19.9968;5.3065;3.5366;-0.0077;124.0;-34.8;-2.64;-19.26;10.84;55.96;120.28;5.0;58.773;39.46855;-0.339762;7.4;NaN;5.74;4.0;11.63;13 / 33;3269;2021-10-20 19:31:12:079
-1.067;7.3811;1.68;6.6559;-5.138;5.0422;-14.0775;-16.474;-21.6419;-8.0699;1.7414;-2.3792;124.0;-34.8;-2.64;-19.26;10.84;55.96;120.28;5.0;58.773;39.46855;-0.339762;7.4;NaN;5.74;4.0;11.63;13 / 33;3318;2021-10-20 19:31:12:128
-2.204;5.565;-0.387;8.0158;5.047;-2.5426;12.3293;-1.468;0.4582;-8.0699;1.7414;-2.3792;124.0;-37.99;1.39;-13.31;306.19;-30.97;-107.6;5.0;58.773;39.46855;-0.339762;7.4;NaN;5.74;4.0;11.63;13 / 33;3369;2021-10-20 19:31:12:179
-4.866;5.282;-1.407;8.2887;5.1571;-0.9433;11.2799;0.3427;0.4536;-5.1366;0.2724;-2.5756;124.0;-38.94;1.86;-11.1;306.19;-30.97;-107.6;5.0;58.773;39.46855;-0.339762;7.4;NaN;5.74;4.0;11.63;13 / 33;3418;2021-10-20 19:31:12:228
-4.866;5.282;-1.407;8.2887;5.1571;-0.9433;11.2799;0.3427;0.4536;0.1594;-1.635;-6.6077;124.0;-38.94;1.86;-11.1;306.19;-30.97;-107.6;5.0;62.176;39.46855;-0.339762;7.4;NaN;5.74;4.0;11.63;13 / 33;3468;2021-10-20 19:31:12:278
-3.1661;3.734;2.2541;6.7995;5.7557;4.0941;7.1311;5.194;-3.1001;0.1594;-1.635;-6.6077;124.0;-39.24;2.21;-9.36;27.38;-35.95;-58.95;5.0;62.176;39.46855;-0.339762;7.4;NaN;5.74;4.0;11.63;13 / 33;3519;2021-10-20 19:31:12:329
3.576;14.912;9.272;8.1642;-1.9537;5.0757;7.1311;5.194;-3.1001;-1.9026;-0.7938;-3.8994;124.0;-38.46;1.56;-11.04;27.38;-35.95;-58.95;5.0;62.176;39.46855;-0.339762;7.4;NaN;5.74;4.0;11.63;13 / 33;3569;2021-10-20 19:31:12:379
42.4361;23.39;25.094;3.5338;-8.3749;3.6775;-12.4982;-12.2177;-12.1939;-3.1729;-1.484;1.5517;124.0;-38.46;1.56;-11.04;27.38;-35.95;-58.95;5.0;62.176;39.46855;-0.339762;7.4;NaN;5.74;4.0;11.63;13 / 33;3619;2021-10-20 19:31:12:429
7.058;-3.152;3.576;3.5338;-8.3749;3.6775;-17.1098;3.7533;-3.8722;-3.1729;-1.484;1.5517;140.0;-36.84;-1.26;-15.0;152.77;58.66;-43.86;5.0;62.176;39.46855;-0.339762;7.4;NaN;5.74;4.0;11.63;13 / 33;3668;2021-10-20 19:31:12:478
3.264;-10.347;-3.5179;-8.9687;-2.217;3.2944;2.317;17.6043;2.7345;-2.273;-1.1496;2.2811;140.0;-36.84;-1.26;-15.0;152.77;58.66;-43.86;5.0;62.176;39.46855;-0.339762;7.4;NaN;5.74;4.0;11.63;13 / 33;3718;2021-10-20 19:31:12:528
-2.57;-11.331;-14.16;-6.3494;-0.3256;-7.4699;2.317;17.6043;2.7345;11.1647;2.1879;5.5659;140.0;-33.84;-8.59;-19.01;152.77;58.66;-43.86;0.0;62.176;39.46855;-0.339762;7.4;NaN;5.74;4.0;11.63;13 / 33;3768;2021-10-20 19:31:12:578
-2.57;-11.331;-14.16;-9.2847;1.1588;-2.9305;9.5503;18.1729;13.5755;11.1647;2.1879;5.5659;140.0;-30.66;-15.36;-21.06;215.99;1.9;139.64;0.0;60.714;39.46855;-0.339762;7.4;NaN;5.74;4.0;11.63;13 / 33;3819;2021-10-20 19:31:12:629
1.4981;-9.909;0.299;-9.2847;1.1588;-2.9305;9.5503;18.1729;13.5755;7.5318;-4.3009;3.118;140.0;-30.66;-15.36;-21.06;215.99;1.9;139.64;0.0;60.714;39.46858;-0.33982;7.4;NaN;6.46;3.9;1.44;13 / 33;3869;2021-10-20 19:31:12:679
13.028;4.229;-4.093;-0.8954;-8.8011;-4.2377;0.5831;8.482;-6.336;7.5318;-4.3009;3.118;140.0;-31.09;-14.81;-20.81;215.99;1.9;139.64;0.0;60.714;39.46858;-0.33982;7.4;NaN;6.46;3.9;1.44;13 / 33;3918;2021-10-20 19:31:12:728
45.2351;29.025;23.687;4.8459;-7.5561;3.9552;-30.4136;-22.3907;-36.7964;5.2331;-2.1574;0.9644;143.0;-34.2;-8.04;-18.24;167.53;50.38;-50.78;5.0;60.714;39.46858;-0.33982;7.4;NaN;6.46;3.9;1.44;13 / 33;3968;2021-10-20 19:31:12:778
0.201;7.7171;1.85;9.5385;-0.2346;2.2745;8.7488;-6.9263;-5.7939;-1.5212;4.7824;-2.1693;143.0;-34.2;-8.04;-18.24;167.53;50.38;-50.78;5.0;60.714;39.46858;-0.33982;7.4;NaN;6.46;3.9;1.44;13 / 33;4018;2021-10-20 19:31:12:828
-2.599;4.851;-1.864;8.1977;4.3766;-3.1316;8.7488;-6.9263;-5.7939;-1.5212;4.7824;-2.1693;143.0;-36.49;-2.21;-14.81;244.92;1.37;-76.59;5.0;60.714;39.46858;-0.33982;7.4;NaN;6.46;3.9;1.44;13 / 33;4068;2021-10-20 19:31:12:878
-2.599;4.851;-1.864;8.1977;4.3766;-3.1316;11.4073;-1.4616;-0.7771;-6.9068;0.2325;-2.4769;143.0;-36.49;-2.21;-14.81;244.92;1.37;-76.59;5.0;60.093;39.46858;-0.33982;7.4;NaN;6.46;3.9;1.44;13 / 33;4119;2021-10-20 19:31:12:929
-4.835;4.0931;-2.869;5.7748;6.8139;-4.0414;11.4045;2.7459;0.3784;-0.2883;-2.8435;-7.0291;143.0;-36.96;-0.11;-12.24;297.68;-44.03;-124.99;5.0;60.093;39.46858;-0.33982;7.4;NaN;6.46;3.9;1.44;13 / 33;4168;2021-10-20 19:31:12:978
-1.1531;3.111;3.552;6.2824;2.3128;7.1635;11.4045;2.7459;0.3784;-0.2883;-2.8435;-7.0291;143.0;-36.9;1.01;-10.61;297.68;-44.03;-124.99;5.0;60.093;39.46858;-0.33982;7.4;NaN;6.46;3.9;1.44;13 / 33;4219;2021-10-20 19:31:13:029
6.005;10.721;5.052;8.9639;-2.0734;3.3902;2.9208;5.3133;-6.222;-1.7805;-1.6012;-3.7638;143.0;-36.9;1.01;-10.61;297.68;-44.03;-124.99;5.0;60.093;39.46858;-0.33982;7.4;NaN;6.46;3.9;1.44;13 / 33;4269;2021-10-20 19:31:13:079
38.879;35.9831;21.729;8.9639;-2.0734;3.3902;-2.2439;-8.5871;-8.6231;-1.7805;-1.6012;-3.7638;146.0;-36.54;-0.11;-10.86;161.02;12.21;-69.28;5.0;60.093;39.46858;-0.33982;7.4;NaN;6.46;3.9;1.44;13 / 33;4318;2021-10-20 19:31:13:128
11.7191;4.7441;2.003;5.4588;-7.6662;2.7533;-21.8036;-6.594;-1.5032;-3.2482;-1.1638;-0.0224;146.0;-35.89;-4.26;-11.51;161.02;12.21;-69.28;5.0;60.093;39.46858;-0.33982;7.4;NaN;6.46;3.9;1.44;13 / 33;4369;2021-10-20 19:31:13:179
11.7191;4.7441;2.003;-2.6671;-6.6942;6.6511;-21.8036;-6.594;-1.5032;-2.0577;-0.6758;1.9984;146.0;-35.89;-4.26;-11.51;161.02;12.21;-69.28;5.0;63.478;39.46858;-0.33982;7.4;NaN;6.46;3.9;1.44;13 / 33;4419;2021-10-20 19:31:13:229
5.045;-7.609;3.99;-8.2313;-5.3343;0.091;-1.2514;14.9552;-4.6687;-2.0577;-0.6758;1.9984;146.0;-33.96;-11.59;-12.11;102.12;43.05;21.85;5.0;63.478;39.46858;-0.33982;7.4;NaN;6.46;3.9;1.44;13 / 33;4469;2021-10-20 19:31:13:279
-0.531;-11.865;-10.8071;-7.015;2.2984;-6.4548;6.6538;19.4999;10.3538;10.5718;7.3257;4.7816;146.0;-31.14;-17.51;-13.91;203.09;-13.56;132.62;5.0;63.478;39.46858;-0.33982;7.4;NaN;6.46;3.9;1.44;13 / 33;4519;2021-10-20 19:31:13:329
-0.842;-10.579;-3.36;-9.0501;-3.2944;-1.8627;6.6538;19.4999;10.3538;8.598;-3.4174;3.8543;146.0;-31.14;-17.51;-13.91;203.09;-13.56;132.62;5.0;63.478;39.46858;-0.33982;7.4;NaN;6.46;3.9;1.44;13 / 33;4568;2021-10-20 19:31:13:378
10.7351;-0.71;-2.676;-9.0501;-3.2944;-1.8627;4.1388;10.9088;-4.517;8.598;-3.4174;3.8543;146.0;-29.46;-17.89;-14.51;125.88;19.62;101.63;5.0;63.478;39.46858;-0.33982;7.4;NaN;6.46;3.9;1.44;13 / 33;4619;2021-10-20 19:31:13:429
26.076;23.2391;15.18;3.5913;-9.0884;-0.8284;-8.5188;-5.9868;-6.2903;4.8429;-1.7076;0.9584;144.0;-29.46;-17.89;-14.51;125.88;19.62;101.63;5.0;63.478;39.46858;-0.33982;7.4;NaN;6.46;3.9;1.44;13 / 33;4669;2021-10-20 19:31:13:479
26.076;23.2391;15.18;5.8897;-6.7804;3.9313;-28.3606;-31.7856;-27.0136;4.8429;-1.7076;0.9584;144.0;-30.84;-13.01;-11.76;211.56;67.93;-102.99;5.0;63.478;39.46858;-0.33982;7.4;NaN;6.46;3.9;1.44;13 / 33;4718;2021-10-20 19:31:13:528
20.7521;18.732;11.7161;8.5569;-4.1851;2.3272;-28.3606;-31.7856;-27.0136;-3.6718;3.9959;-2.2029;144.0;-31.74;-5.59;-6.96;211.56;67.93;-102.99;5.0;54.666;39.46858;-0.33982;7.4;NaN;6.46;3.9;1.44;13 / 33;4768;2021-10-20 19:31:13:578
-2.628;5.34;-3.729;6.8522;2.4804;-6.5649;9.9921;-3.2872;-2.3143;-7.1941;-0.52;-1.3179;144.0;-31.74;-5.59;-6.96;211.56;67.93;-102.99;5.0;54.666;39.46858;-0.33982;7.4;NaN;6.46;3.9;1.44;13 / 33;4819;2021-10-20 19:31:13:629
-1.9811;2.858;-1.503;6.8522;2.4804;-6.5649;9.4425;2.8725;-1.2763;-7.1941;-0.52;-1.3179;144.0;-31.99;-1.69;-2.51;277.93;-14.65;-133.77;5.0;54.666;39.46862;-0.339862;7.1;NaN;7.07;3.8;11.42;13 / 33;4869;2021-10-20 19:31:13:679
-7.125;1.7681;4.011;0.9768;8.9974;3.7828;12.0388;6.0739;-7.2735;-2.6946;-1.6578;-3.0309;144.0;-34.74;-0.41;-0.66;75.16;-66.53;-14.48;5.0;54.666;39.46862;-0.339862;7.1;NaN;7.07;3.8;11.42;13 / 33;4918;2021-10-20 19:31:13:728
-0.181;2.891;2.75;7.5848;3.6057;5.0661;12.0388;6.0739;-7.2735;-1.8756;-2.0989;-6.4536;157.0;-34.74;-0.41;-0.66;75.16;-66.53;-14.48;5.0;54.666;39.46862;-0.339862;7.1;NaN;7.07;3.8;11.42;13 / 33;4969;2021-10-20 19:31:13:779
4.164;20.726;6.3;8.7628;-1.6328;4.0941;-1.1099;5.0178;-6.6811;-1.8756;-2.0989;-6.4536;157.0;-37.44;-0.11;-3.24;75.16;-66.53;-14.48;5.0;54.666;39.46862;-0.339862;7.1;NaN;7.07;3.8;11.42;13 / 33;5019;2021-10-20 19:31:13:829
4.164;20.726;6.3;5.2864;-7.3119;3.8451;-1.1099;5.0178;-6.6811;-3.1778;-1.4259;-1.3093;157.0;-37.99;-1.74;-7.31;148.57;48.2;-53.97;5.0;63.614;39.46862;-0.339862;7.1;NaN;7.07;3.8;11.42;13 / 33;5069;2021-10-20 19:31:13:879
39.104;23.168;14.601;0.6752;-9.7731;0.4597;-46.3916;-23.8287;-23.6076;-2.215;-1.6489;2.9322;157.0;-37.99;-1.74;-7.31;148.57;48.2;-53.97;5.0;63.614;39.46862;-0.339862;7.1;NaN;7.07;3.8;11.42;13 / 33;5118;2021-10-20 19:31:13:928
-0.911;-4.145;1.761;0.6752;-9.7731;0.4597;-2.48;9.1188;1.8045;-2.215;-1.6489;2.9322;157.0;-36.6;-5.94;-11.7;148.57;48.2;-53.97;5.0;63.614;39.46862;-0.339862;7.1;NaN;7.07;3.8;11.42;13 / 33;5169;2021-10-20 19:31:13:979
4.7921;-8.056;-4.167;-8.4898;-4.798;1.0439;-0.5299;15.9256;1.8669;-1.7405;-0.9635;3.0326;157.0;-36.6;-5.94;-11.7;148.57;48.2;-53.97;5.0;63.614;39.46862;-0.339862;7.1;NaN;7.07;3.8;11.42;13 / 33;5219;2021-10-20 19:31:14:029
-3.559;-10.9309;-13.61;-5.7892;0.0096;-7.9152;5.4256;17.788;12.8298;-1.7405;-0.9635;3.0326;157.0;-34.09;-12.54;-15.96;78.11;29.29;82.99;5.0;63.614;39.46862;-0.339862;7.1;NaN;7.07;3.8;11.42;13 / 33;5268;2021-10-20 19:31:14:078
4.023;-7.4149;1.9811;-9.6774;-1.0582;-1.1971;4.696;15.21;-4.5133;11.2006;-3.0156;2.5575;155.0;-32.59;-16.31;-17.1;133.46;6.19;97.05;5.0;63.614;39.46862;-0.339862;7.1;NaN;7.07;3.8;11.42;13 / 33;5318;2021-10-20 19:31:14:128
4.023;-7.4149;1.9811;-0.5746;-8.9974;-3.8642;4.696;15.21;-4.5133;7.2885;-2.2678;1.4435;155.0;-32.59;-16.31;-17.1;133.46;6.19;97.05;5.0;63.614;39.46862;-0.339862;7.1;NaN;7.07;3.8;11.42;13 / 33;5368;2021-10-20 19:31:14:178
10.883;6.2471;1.5791;4.7597;-7.6327;3.9121;-5.852;-5.2393;-9.9249;7.2885;-2.2678;1.4435;155.0;-33.9;-14.29;-15.66;293.39;66.53;171.54;5.0;60.42;39.46862;-0.339862;7.1;NaN;7.07;3.8;11.42;13 / 33;5419;2021-10-20 19:31:14:229
47.042;30.978;16.8;4.7597;-7.6327;3.9121;-39.6356;-31.0436;-23.2339;5.1901;6.2597;-2.5944;155.0;-36.0;-7.39;-12.54;158.46;51.09;-50.58;5.0;60.42;39.46862;-0.339862;7.1;NaN;7.07;3.8;11.42;13 / 33;5468;2021-10-20 19:31:14:278
-3.236;5.976;-3.9971;7.4364;4.0223;-4.9752;-39.6356;-31.0436;-23.2339;-6.1768;1.5705;-1.1268;155.0;-36.0;-7.39;-12.54;158.46;51.09;-50.58;5.0;60.42;39.46862;-0.339862;7.1;NaN;7.07;3.8;11.42;13 / 33;5518;2021-10-20 19:31:14:328
-2.879;3.956;-1.443;7.6088;5.5354;-2.7533;12.8645;-1.6201;-0.9592;-6.1768;1.5705;-1.1268;155.0;-37.56;-2.76;-10.01;285.08;-24.21;-123.78;5.0;60.42;39.46862;-0.339862;7.1;NaN;7.07;3.8;11.42;13 / 33;5568;2021-10-20 19:31:14:378
-6.699;4.82;-3.243;5.3295;7.4077;-3.5913;12.849;0.7326;-1.1931;-3.754;-0.3279;-1.7484;155.0;-37.56;-2.76;-10.01;285.08;-24.21;-123.78;5.0;60.42;39.46862;-0.339862;7.1;NaN;7.07;3.8;11.42;13 / 33;5619;2021-10-20 19:31:14:429
-6.699;4.82;-3.243;5.3295;7.4077;-3.5913;12.849;0.7326;-1.1931;-3.754;-0.3279;-1.7484;141.0;-38.59;-1.56;-7.44;285.08;-24.21;-123.78;5.0;60.42;39.46862;-0.339862;7.1;NaN;7.07;3.8;11.42;13 / 33;5668;2021-10-20 19:31:14:478
-0.129;5.4551;4.6691;7.4555;0.1676;6.3734;3.41;2.8462;-8.7284;-0.6241;-3.1421;-5.9873;141.0;-38.89;-0.24;-4.5;88.59;-0.98;-49.47;5.0;61.578;39.46862;-0.339862;7.1;NaN;7.07;3.8;11.42;13 / 33;5718;2021-10-20 19:31:14:528
2.862;11.822;12.9251;6.5314;-1.5802;7.1443;-1.7042;-2.3654;-15.29;-4.3251;-1.3395;-2.2628;141.0;-38.89;-0.24;-4.5;88.59;-0.98;-49.47;5.0;61.578;39.46862;-0.339862;7.1;NaN;7.07;3.8;11.42;13 / 33;5769;2021-10-20 19:31:14:579
42.5231;28.35;24.1301;4.9225;-7.3837;4.1851;-1.7042;-2.3654;-15.29;-4.3251;-1.3395;-2.2628;141.0;-38.76;-1.74;-4.5;104.38;9.27;-42.43;5.0;61.578;39.46862;-0.339862;7.1;NaN;7.07;3.8;11.42;13 / 33;5820;2021-10-20 19:31:14:630
11.0441;-0.78;0.8921;-0.6847;-9.7492;0.7805;-35.6606;-8.0898;-13.831;-3.7562;-1.7944;2.0543;141.0;-37.56;-5.94;-8.46;61.59;83.92;41.26;5.0;61.578;39.468647;-0.339867;7.1;NaN;6.91;3.8;14.74;13 / 33;5869;2021-10-20 19:31:14:679
5.8091;-9.5171;0.294;-0.6847;-9.7492;0.7805;-1.828;16.9495;-1.0868;-2.6289;-1.642;2.5296;141.0;-37.56;-5.94;-8.46;61.59;83.92;41.26;5.0;61.578;39.468647;-0.339867;7.1;NaN;6.91;3.8;14.74;13 / 33;5919;2021-10-20 19:31:14:729
5.8091;-9.5171;0.294;-7.5369;-3.2513;-5.363;-1.828;16.9495;-1.0868;-2.6289;-1.642;2.5296;141.0;-35.1;-12.11;-13.74;275.32;19.37;125.43;5.0;61.578;39.468647;-0.339867;7.1;NaN;6.91;3.8;14.74;13 / 33;5968;2021-10-20 19:31:14:778
-2.458;-10.797;-14.2061;-8.6383;2.1261;-4.1324;7.9129;18.9265;13.8782;13.0617;1.0223;2.5149;161.0;-35.1;-12.11;-13.74;275.32;19.37;125.43;5.0;62.913;39.468647;-0.339867;7.1;NaN;6.91;3.8;14.74;13 / 33;6018;2021-10-20 19:31:14:828
0.9041;-9.421;-0.107;-8.6383;2.1261;-4.1324;4.6709;15.0149;-5.7143;13.0617;1.0223;2.5149;161.0;-32.04;-16.69;-16.5;275.32;19.37;125.43;5.0;62.913;39.468647;-0.339867;7.1;NaN;6.91;3.8;14.74;13 / 33;6068;2021-10-20 19:31:14:878
10.62;-0.033;-0.514;-4.6208;-8.3893;-2.1069;4.6709;15.0149;-5.7143;8.3516;-2.876;1.2478;161.0;-32.29;-15.19;-16.74;5.4;58.81;114.51;5.0;62.913;39.468647;-0.339867;7.1;NaN;6.91;3.8;14.74;13 / 33;6119;2021-10-20 19:31:14:929
32.46;21.954;15.9701;4.9464;-7.5082;3.9121;-9.8089;-5.1433;-12.0099;6.0972;3.2072;-1.046;161.0;-32.29;-15.19;-16.74;5.4;58.81;114.51;5.0;62.913;39.468647;-0.339867;7.1;NaN;6.91;3.8;14.74;13 / 33;6169;2021-10-20 19:31:14:979
22.004;15.5921;8.66;4.7309;-8.0254;3.0646;-27.2606;-20.3732;-19.3736;6.0972;3.2072;-1.046;161.0;-35.94;-7.31;-13.31;159.41;49.97;-51.66;5.0;62.913;39.468647;-0.339867;7.1;NaN;6.91;3.8;14.74;13 / 33;6219;2021-10-20 19:31:15:029
-3.499;5.414;-4.0519;6.9767;4.5011;-5.2194;9.1924;-4.0726;0.4963;-6.1506;2.8593;-1.0191;161.0;-37.99;-0.41;-8.04;159.41;49.97;-51.66;5.0;62.913;39.468647;-0.339867;7.1;NaN;6.91;3.8;14.74;13 / 33;6269;2021-10-20 19:31:15:079
-3.499;5.414;-4.0519;6.9767;4.5011;-5.2194;9.1924;-4.0726;0.4963;-5.4515;0.3227;-1.0266;179.0;-37.99;-0.41;-8.04;159.41;49.97;-51.66;5.0;62.913;39.468647;-0.339867;7.1;NaN;6.91;3.8;14.74;13 / 33;6318;2021-10-20 19:31:15:128
-3.477;4.923;3.7841;6.79;4.798;5.2098;11.415;-0.0302;-5.9163;-5.4515;0.3227;-1.0266;179.0;-38.7;1.31;-3.9;50.1;-29.28;-52.5;5.0;57.842;39.468647;-0.339867;7.1;NaN;6.91;3.8;14.74;13 / 33;6368;2021-10-20 19:31:15:178
-6.015;3.446;0.8591;4.8411;8.442;1.2067;11.4493;4.2147;-3.6618;-1.9172;-2.3401;-5.789;179.0;-38.7;1.31;-3.9;50.1;-29.28;-52.5;5.0;57.842;39.468647;-0.339867;7.1;NaN;6.91;3.8;14.74;13 / 33;6418;2021-10-20 19:31:15:228
4.224;6.5441;8.516;5.5593;-3.5913;7.2401;11.4493;4.2147;-3.6618;-1.9172;-2.3401;-5.789;179.0;-39.3;1.26;-1.91;12.6;-59.42;-76.0;5.0;57.842;39.468647;-0.339867;7.1;NaN;6.91;3.8;14.74;13 / 33;6468;2021-10-20 19:31:15:278
13.088;19.091;8.772;7.5657;-5.1811;3.4764;-1.7963;2.8575;-9.9319;-3.9575;-0.826;-4.3036;179.0;-39.06;-0.66;-2.94;12.6;-59.42;-76.0;5.0;57.842;39.468647;-0.339867;7.1;NaN;6.91;3.8;14.74;13 / 33;6519;2021-10-20 19:31:15:329
31.442;13.509;8.097;3.7637;-8.7724;2.2553;-35.0749;-10.7118;-14.4648;-3.2414;-1.3637;-1.2657;179.0;-39.06;-0.66;-2.94;12.6;-59.42;-76.0;5.0;57.842;39.468647;-0.339867;7.1;NaN;6.91;3.8;14.74;13 / 33;6568;2021-10-20 19:31:15:378
31.442;13.509;8.097;3.7637;-8.7724;2.2553;-35.0749;-10.7118;-14.4648;-3.2414;-1.3637;-1.2657;179.0;-38.46;-2.16;-7.01;157.87;63.43;-59.07;5.0;57.842;39.468647;-0.339867;7.1;NaN;6.91;3.8;14.74;13 / 33;6618;2021-10-20 19:31:15:428
3.3821;-4.8319;6.168;-5.5498;-3.8882;7.0868;-6.5875;8.4599;-1.3768;-2.3778;-1.6452;2.3874;184.0;-36.3;-5.29;-13.31;157.87;63.43;-59.07;5.0;60.387;39.468647;-0.339867;7.1;NaN;6.91;3.8;14.74;13 / 33;6668;2021-10-20 19:31:15:478
2.7311;-7.9271;-6.338;-4.6256;-0.905;-8.6048;2.7968;15.2327;9.8145;-4.8025;-2.9421;2.068;184.0;-36.3;-5.29;-13.31;157.87;63.43;-59.07;5.0;60.387;39.468647;-0.339867;7.1;NaN;6.91;3.8;14.74;13 / 33;6718;2021-10-20 19:31:15:528
-0.895;-8.5901;-10.749;-8.3414;1.087;-5.0374;2.7968;15.2327;9.8145;-4.8025;-2.9421;2.068;184.0;-34.39;-9.24;-16.61;254.45;5.29;151.74;5.0;60.387;39.468647;-0.339867;7.1;NaN;6.91;3.8;14.74;13 / 33;6769;2021-10-20 19:31:15:579
0.327;-9.153;-2.1469;-8.3414;1.087;-5.0374;5.9922;10.8105;14.4833;-12.4184;2.3136;1.3427;184.0;-33.66;-11.64;-16.61;254.45;5.29;151.74;5.0;60.387;39.468647;-0.339867;7.1;NaN;6.91;3.8;14.74;13 / 33;6818;2021-10-20 19:31:15:628
11.901;4.4711;-4.2671;-7.7428;-5.1427;-3.1316;-6.3027;-4.7188;10.8851;-9.7155;1.5175;1.6749;184.0;-33.66;-11.64;-16.61;254.45;5.29;151.74;5.0;60.387;39.468655;-0.339882;7.2;NaN;8.0;3.8;0.26;13 / 33;6868;2021-10-20 19:31:15:678
11.901;4.4711;-4.2671;3.9361;-7.7189;4.6017;-6.3027;-4.7188;10.8851;-9.7155;1.5175;1.6749;184.0;-35.4;-9.71;-12.84;354.46;31.62;112.02;5.0;60.387;39.468655;-0.339882;7.2;NaN;8.0;3.8;0.26;13 / 33;6919;2021-10-20 19:31:15:729
40.3421;24.881;27.21;5.4923;-7.7141;2.5522;-32.3737;-27.8601;-26.6858;-1.2837;0.2155;-7.0242;183.0;-37.69;-3.79;-7.5;354.46;31.62;112.02;5.0;60.387;39.468655;-0.339882;7.2;NaN;8.0;3.8;0.26;13 / 33;6969;2021-10-20 19:31:15:779
3.662;9.9161;-11.673;5.4923;-7.7141;2.5522;-10.4727;-20.5834;10.5653;-1.2837;0.2155;-7.0242;183.0;-37.69;-3.79;-7.5;354.46;31.62;112.02;5.0;57.359;39.468655;-0.339882;7.2;NaN;8.0;3.8;0.26;13 / 33;7019;2021-10-20 19:31:15:829
1.196;6.8411;4.574;9.6822;-1.2402;-0.9529;4.4633;-7.748;8.6872;9.2647;-1.5339;2.1737;183.0;-38.94;0.96;-2.76;240.32;7.26;-95.62;5.0;57.359;39.468655;-0.339882;7.2;NaN;8.0;3.8;0.26;13 / 33;7069;2021-10-20 19:31:15:879
-5.2391;5.579;-1.0001;8.5712;4.7405;0.498;4.4633;-7.748;8.6872;7.8519;0.0842;-0.5217;183.0;-38.94;0.96;-2.76;240.32;7.26;-95.62;5.0;57.359;39.468655;-0.339882;7.2;NaN;8.0;3.8;0.26;13 / 33;7119;2021-10-20 19:31:15:929
-0.8209;3.623;4.658;5.4013;7.3071;3.6871;10.449;-2.3871;8.6624;7.8519;0.0842;-0.5217;183.0;-39.0;2.64;0.36;6.02;-28.9;-86.67;5.0;57.359;39.468655;-0.339882;7.2;NaN;8.0;3.8;0.26;13 / 33;7169;2021-10-20 19:31:15:979
-0.8209;3.623;4.658;5.4013;7.3071;3.6871;4.096;2.6099;2.1921;2.78;2.3068;-3.3982;183.0;-39.54;1.74;1.39;6.02;-28.9;-86.67;5.0;57.359;39.468655;-0.339882;7.2;NaN;8.0;3.8;0.26;13 / 33;7218;2021-10-20 19:31:16:028
8.028;14.895;6.137;8.1163;-4.3766;3.3423;-5.9614;-7.7337;0.2546;1.2386;0.1019;-0.2254;183.0;-39.54;1.74;1.39;6.02;-28.9;-86.67;5.0;57.359;39.468655;-0.339882;7.2;NaN;8.0;3.8;0.26;13 / 33;7268;2021-10-20 19:31:16:078
42.731;26.306;21.741;4.7166;-7.6614;3.8978;-5.9614;-7.7337;0.2546;1.2386;0.1019;-0.2254;110.0;-39.54;-1.31;-1.44;135.58;51.39;-50.43;5.0;64.225;39.468655;-0.339882;7.2;NaN;8.0;3.8;0.26;13 / 33;7319;2021-10-20 19:31:16:129
11.1281;-1.7951;-0.0859;-1.5514;-9.6822;-0.0718;-33.044;-9.4635;-1.9988;0.5287;-1.4602;1.9917;110.0;-38.34;-5.59;-6.11;6.57;80.89;92.65;5.0;64.225;39.468655;-0.339882;7.2;NaN;8.0;3.8;0.26;13 / 33;7368;2021-10-20 19:31:16:178
4.275;-10.7329;0.5981;-9.1028;-3.6152;0.498;-0.7926;14.3186;3.2943;-1.4747;-2.3858;1.9214;110.0;-38.34;-5.59;-6.11;6.57;80.89;92.65;5.0;64.225;39.468655;-0.339882;7.2;NaN;8.0;3.8;0.26;13 / 33;7418;2021-10-20 19:31:16:228
-3.7069;-11.424;-13.6069;-6.1675;2.0016;-7.355;6.6279;16.0536;17.2928;-1.4747;-2.3858;1.9214;110.0;-36.19;-11.81;-11.21;81.76;21.63;86.87;5.0;64.225;39.468655;-0.339882;7.2;NaN;8.0;3.8;0.26;13 / 33;7469;2021-10-20 19:31:16:279
2.5511;-8.32;-1.074;-6.1675;2.0016;-7.355;6.6279;16.0536;17.2928;-11.5587;1.6433;2.2748;110.0;-36.19;-11.81;-11.21;81.76;21.63;86.87;5.0;64.225;39.468655;-0.339882;7.2;NaN;8.0;3.8;0.26;13 / 33;7519;2021-10-20 19:31:16:329
2.5511;-8.32;-1.074;-9.3087;-2.8539;-1.1923;6.2325;8.9536;12.8452;-11.5587;1.6433;2.2748;110.0;-34.09;-15.96;-14.21;117.49;16.91;97.3;5.0;64.225;39.468655;-0.339882;7.2;NaN;8.0;3.8;0.26;13 / 33;7569;2021-10-20 19:31:16:379
11.2091;0.512;-0.155;0.4405;-9.7971;-0.1293;-7.14;-7.371;5.8563;-8.1279;1.1241;2.047;110.0;-34.8;-13.91;-13.91;217.58;87.32;-106.36;5.0;56.184;39.468655;-0.339882;7.2;NaN;8.0;3.8;0.26;13 / 33;7619;2021-10-20 19:31:16:429
34.1111;26.76;16.104;5.6743;-7.2353;3.4141;-28.4559;-34.0224;-12.727;-4.8554;0.9199;-7.1441;174.0;-34.8;-13.91;-13.91;217.58;87.32;-106.36;5.0;56.184;39.468655;-0.339882;7.2;NaN;8.0;3.8;0.26;13 / 33;7669;2021-10-20 19:31:16:479
16.578;14.0741;2.829;6.292;-7.4124;1.2593;-28.4559;-34.0224;-12.727;-4.8554;0.9199;-7.1441;174.0;-37.8;-7.31;-11.04;217.58;87.32;-106.36;5.0;56.184;39.468655;-0.339882;7.2;NaN;8.0;3.8;0.26;13 / 33;7719;2021-10-20 19:31:16:529
-5.479;2.3261;-2.168;3.5865;8.4851;-3.3567;8.1349;-10.6515;-2.1534;-12.6538;0.9442;-3.8367;174.0;-39.96;-3.11;-6.36;302.53;-59.93;-133.1;5.0;56.184;39.468655;-0.339882;7.2;NaN;8.0;3.8;0.26;13 / 33;7768;2021-10-20 19:31:16:578
-2.3171;3.7931;0.392;3.5865;8.4851;-3.3567;8.1349;-10.6515;-2.1534;-12.6538;0.9442;-3.8367;174.0;-39.96;-3.11;-6.36;302.53;-59.93;-133.1;5.0;56.184;39.468655;-0.339882;7.2;NaN;8.0;3.8;0.26;13 / 33;7818;2021-10-20 19:31:16:628
-2.3171;3.7931;0.392;8.3366;5.0996;0.838;10.7378;-3.7248;-3.645;-8.5273;-0.5448;-2.5099;174.0;-40.74;-2.29;-1.86;6.14;-31.33;-84.26;5.0;56.184;39.46868;-0.339882;7.1;NaN;7.03;3.9;1.89;14 / 33;7868;2021-10-20 19:31:16:678
-6.8569;1.292;-0.852;1.7909;9.572;-1.1779;12.5219;3.4238;-5.6272;-1.8822;-6.6546;-6.3859;174.0;-40.74;-2.29;-1.86;6.14;-31.33;-84.26;5.0;56.184;39.46868;-0.339882;7.1;NaN;7.03;3.9;1.89;14 / 33;7919;2021-10-20 19:31:16:729
1.874;5.9;5.328;7.0868;-2.241;6.3973;12.5219;3.4238;-5.6272;-1.8822;-6.6546;-6.3859;95.0;-41.1;-2.46;0.06;6.14;-31.33;-84.26;5.0;60.825;39.46868;-0.339882;7.1;NaN;7.03;3.9;1.89;14 / 33;7969;2021-10-20 19:31:16:779
8.0921;19.019;5.081;8.7628;-3.7302;2.3415;-4.2484;-1.2076;-13.0364;-5.1795;-2.9811;-3.0561;95.0;-41.89;-2.76;-0.66;110.41;13.21;-47.93;5.0;60.825;39.46868;-0.339882;7.1;NaN;7.03;3.9;1.89;14 / 33;8019;2021-10-20 19:31:16:829
34.65;17.942;4.9541;4.4724;-8.6383;1.2354;-40.1689;-15.2891;-15.7106;-4.6029;-2.0212;2.7906;95.0;-42.0;-3.54;-2.94;110.41;13.21;-47.93;5.0;60.825;39.46868;-0.339882;7.1;NaN;7.03;3.9;1.89;14 / 33;8069;2021-10-20 19:31:16:879
6.2951;-1.206;1.031;-1.81;-9.5146;1.5467;-7.9631;6.3532;1.2839;-4.6029;-2.0212;2.7906;95.0;-42.0;-3.54;-2.94;110.41;13.21;-47.93;5.0;60.825;39.46868;-0.339882;7.1;NaN;7.03;3.9;1.89;14 / 33;8118;2021-10-20 19:31:16:928
6.2951;-1.206;1.031;-1.81;-9.5146;1.5467;-7.9631;6.3532;1.2839;-2.3962;-1.1044;3.1306;95.0;-40.74;-7.26;-7.91;54.31;75.95;49.49;5.0;60.825;39.46868;-0.339882;7.1;NaN;7.03;3.9;1.89;14 / 33;8168;2021-10-20 19:31:16:978
3.7601;-7.257;-6.288;-6.9001;-3.5817;-5.9807;-2.1292;14.1849;1.039;8.0708;4.0902;3.0927;95.0;-40.74;-7.26;-7.91;54.31;75.95;49.49;5.0;60.825;39.46868;-0.339882;7.1;NaN;7.03;3.9;1.89;14 / 33;8218;2021-10-20 19:31:17:028
-4.083;-10.977;-8.011;-8.9352;2.5283;-3.1556;10.1732;17.788;4.4889;8.0708;4.0902;3.0927;95.0;-38.64;-12.19;-12.54;279.74;21.42;130.92;5.0;59.622;39.46868;-0.339882;7.1;NaN;7.03;3.9;1.89;14 / 33;8269;2021-10-20 19:31:17:079
5.4071;-6.261;-0.722;-2.8156;-8.8681;-3.0981;0.2245;9.6074;-6.582;8.8543;-2.9755;1.6389;138.0;-37.14;-13.91;-13.74;177.88;-14.94;109.45;5.0;59.622;39.46868;-0.339882;7.1;NaN;7.03;3.9;1.89;14 / 33;8319;2021-10-20 19:31:17:129
16.9391;8.5901;4.3871;-2.8156;-8.8681;-3.0981;0.2245;9.6074;-6.582;8.8543;-2.9755;1.6389;138.0;-37.14;-13.91;-13.74;177.88;-14.94;109.45;5.0;59.622;39.46868;-0.339882;7.1;NaN;7.03;3.9;1.89;14 / 33;8369;2021-10-20 19:31:17:179
37.905;24.6251;11.223;4.5777;-7.8099;3.7733;-11.8183;-8.4141;-12.7531;5.658;0.32;-0.0832;138.0;-38.4;-10.26;-12.66;177.88;-14.94;109.45;5.0;59.622;39.46868;-0.339882;7.1;NaN;7.03;3.9;1.89;14 / 33;8419;2021-10-20 19:31:17:229
37.905;24.6251;11.223;5.8419;-7.6375;1.9489;-14.2708;-15.8543;-11.6167;-6.0877;3.011;-0.543;138.0;-40.74;-3.49;-9.41;172.64;51.12;-71.55;5.0;59.622;39.46868;-0.339882;7.1;NaN;7.03;3.9;1.89;14 / 33;8468;2021-10-20 19:31:17:278
-4.0091;5.565;-2.0509;6.8953;6.45;-2.6528;12.4115;-1.374;-2.7479;-6.0877;3.011;-0.543;138.0;-40.74;-3.49;-9.41;172.64;51.12;-71.55;5.0;59.622;39.46868;-0.339882;7.1;NaN;7.03;3.9;1.89;14 / 33;8518;2021-10-20 19:31:17:328
0.069;5.3441;0.876;9.5624;1.1779;1.8244;12.4115;-1.374;-2.7479;-5.9213;0.444;-0.8858;138.0;-41.29;-0.36;-6.36;319.45;-41.12;-111.04;5.0;59.622;39.46868;-0.339882;7.1;NaN;7.03;3.9;1.89;14 / 33;8568;2021-10-20 19:31:17:378
-6.999;3.8291;-0.876;3.6105;9.1123;0.3304;8.452;-0.5795;-4.3006;-2.0244;-1.9568;-5.668;138.0;-41.29;-0.36;-6.36;319.45;-41.12;-111.04;5.0;58.172;39.46868;-0.339882;7.1;NaN;7.03;3.9;1.89;14 / 33;8619;2021-10-20 19:31:17:429
-1.213;5.6081;3.257;8.2935;-3.1508;4.1755;9.8692;4.4073;-5.3052;-2.0244;-1.9568;-5.668;150.0;-41.4;0.36;-3.96;359.63;-68.3;-84.77;5.0;58.172;39.46868;-0.339882;7.1;NaN;7.03;3.9;1.89;14 / 33;8668;2021-10-20 19:31:17:478
7.164;14.8691;10.979;8.2935;-3.1508;4.1755;-3.116;-0.7257;-8.1632;-2.5465;-1.1916;-4.2778;150.0;-41.34;0.71;-3.41;125.53;18.74;-63.28;5.0;58.172;39.46868;-0.339882;7.1;NaN;7.03;3.9;1.89;14 / 33;8718;2021-10-20 19:31:17:528
43.6211;25.319;14.541;7.4364;-4.3383;4.6926;-3.116;-0.7257;-8.1632;-2.5465;-1.1916;-4.2778;150.0;-41.34;0.71;-3.41;125.53;18.74;-63.28;5.0;58.172;39.46868;-0.339882;7.1;NaN;7.03;3.9;1.89;14 / 33;8769;2021-10-20 19:31:17:579
43.6211;25.319;14.541;3.9361;-8.6957;2.2553;-27.8289;-14.8248;-15.4457;-3.3243;-1.2925;0.927;150.0;-40.44;-1.61;-6.36;138.17;26.26;-57.75;5.0;58.172;39.46868;-0.339882;7.1;NaN;7.03;3.9;1.89;14 / 33;8819;2021-10-20 19:31:17:629
8.0951;0.023;2.3;-5.7509;-7.7189;1.8675;-4.6828;9.0264;-0.604;-2.2606;-1.2111;2.5418;150.0;-37.74;-7.26;-13.01;138.17;26.26;-57.75;5.0;58.172;39.468697;-0.339877;7.1;NaN;6.05;4.0;9.78;14 / 33;8869;2021-10-20 19:31:17:679
6.692;-6.5029;-1.0069;-8.1977;-3.4381;-4.1468;-1.6704;14.6081;3.2761;-2.2606;-1.2111;2.5418;150.0;-37.74;-7.26;-13.01;138.17;26.26;-57.75;5.0;62.785;39.468697;-0.339877;7.1;NaN;6.05;4.0;9.78;14 / 33;8919;2021-10-20 19:31:17:729
-1.663;-10.397;-10.991;-6.3111;1.4413;-7.3694;8.3343;17.5192;10.0544;4.1411;2.6631;4.8854;170.0;-33.66;-14.34;-19.26;71.82;20.52;116.83;5.0;62.785;39.468697;-0.339877;7.1;NaN;6.05;4.0;9.78;14 / 33;8969;2021-10-20 19:31:17:779
1.338;-8.349;-3.487;-6.3111;1.4413;-7.3694;8.3343;17.5192;10.0544;9.0501;-3.4691;2.2576;170.0;-33.66;-14.34;-19.26;71.82;20.52;116.83;5.0;62.785;39.468697;-0.339877;7.1;NaN;6.05;4.0;9.78;14 / 33;9019;2021-10-20 19:31:17:829
10.589;0.014;0.057;-8.7676;-4.2665;-1.0534;5.4919;12.7332;-2.0113;9.0501;-3.4691;2.2576;170.0;-31.26;-17.64;-20.04;71.82;20.52;116.83;5.0;62.785;39.468697;-0.339877;7.1;NaN;6.05;4.0;9.78;14 / 33;9069;2021-10-20 19:31:17:879
10.589;0.014;0.057;4.4819;-8.6431;-1.1827;-22.1611;-17.0936;-14.2767;8.0843;-3.4181;2.052;170.0;-33.0;-15.11;-17.64;219.65;61.79;-104.78;5.0;62.785;39.468697;-0.339877;7.1;NaN;6.05;4.0;9.78;14 / 33;9118;2021-10-20 19:31:17:928
39.921;23.2511;24.611;3.9025;-6.4643;6.2537;-22.1611;-17.0936;-14.2767;2.8491;5.9903;-1.8711;170.0;-33.0;-15.11;-17.64;219.65;61.79;-104.78;5.0;62.785;39.468697;-0.339877;7.1;NaN;6.05;4.0;9.78;14 / 33;9168;2021-10-20 19:31:17:978
10.3451;10.938;8.1041;3.9025;-6.4643;6.2537;-17.6243;-15.0869;-30.1983;2.8491;5.9903;-1.8711;170.0;-36.06;-8.04;-14.64;140.04;41.25;-31.97;5.0;57.484;39.468697;-0.339877;7.1;NaN;6.05;4.0;9.78;14 / 33;9218;2021-10-20 19:31:18:028
-5.9239;4.8971;-3.568;6.9288;6.3829;-2.7342;14.3545;-0.8213;0.6688;-8.0602;0.1672;-1.5954;170.0;-37.56;-4.01;-12.11;140.04;41.25;-31.97;5.0;57.484;39.468697;-0.339877;7.1;NaN;6.05;4.0;9.78;14 / 33;9268;2021-10-20 19:31:18:078
-3.813;3.87;1.749;7.8817;5.3965;2.2218;14.3545;-0.8213;0.6688;-8.0602;0.1672;-1.5954;179.0;-37.56;-4.01;-12.11;140.04;41.25;-31.97;5.0;57.484;39.468697;-0.339877;7.1;NaN;6.05;4.0;9.78;14 / 33;9318;2021-10-20 19:31:18:128
-6.41;2.769;-1.6939;3.7781;8.7484;-2.308;12.7877;3.8822;-1.0498;-4.227;-0.5983;-3.8409;179.0;-38.89;-3.84;-9.06;5.87;-33.39;-74.26;5.0;57.484;39.468697;-0.339877;7.1;NaN;6.05;4.0;9.78;14 / 33;9368;2021-10-20 19:31:18:178
-6.41;2.769;-1.6939;3.7781;8.7484;-2.308;12.7877;3.8822;-1.0498;0.0076;-1.5509;-6.6462;179.0;-38.89;-3.84;-9.06;5.87;-33.39;-74.26;5.0;57.484;39.468697;-0.339877;7.1;NaN;6.05;4.0;9.78;14 / 33;9419;2021-10-20 19:31:18:229
4.658;8.471;5.964;7.3167;-4.0175;5.1475;0.9586;3.7125;-5.7865;0.0076;-1.5509;-6.6462;179.0;-39.6;-3.06;-5.81;5.87;-33.39;-74.26;5.0;57.484;39.468697;-0.339877;7.1;NaN;6.05;4.0;9.78;14 / 33;9468;2021-10-20 19:31:18:278
22.5401;27.797;17.444;6.8474;-5.5498;4.2952;-22.0015;-17.9936;-17.5431;-2.3229;-1.4215;-0.8221;179.0;-39.49;-3.66;-6.24;146.69;34.47;-57.9;5.0;57.484;39.468697;-0.339877;7.1;NaN;6.05;4.0;9.78;14 / 33;9518;2021-10-20 19:31:18:328
23.8691;9.1481;7.37;3.371;-8.8011;2.715;-22.0015;-17.9936;-17.5431;-2.963;-1.9269;2.4144;179.0;-39.49;-3.66;-6.24;146.69;34.47;-57.9;5.0;65.646;39.468697;-0.339877;7.1;NaN;6.05;4.0;9.78;14 / 33;9568;2021-10-20 19:31:18:378
1.208;-6.0821;-0.428;-9.6007;-1.8962;-0.6656;-7.1599;8.0055;1.436;-2.963;-1.9269;2.4144;179.0;-37.74;-7.39;-10.91;156.92;63.81;-51.15;5.0;65.646;39.468697;-0.339877;7.1;NaN;6.05;4.0;9.78;14 / 33;9618;2021-10-20 19:31:18:428
2.087;-9.7151;-5.926;-8.2361;-1.7669;-5.023;0.8286;16.1485;3.4441;-2.7021;-1.9203;2.397;144.0;-37.74;-7.39;-10.91;156.92;63.81;-51.15;5.0;65.646;39.468697;-0.339877;7.1;NaN;6.05;4.0;9.78;14 / 33;9668;2021-10-20 19:31:18:478
2.087;-9.7151;-5.926;-8.2361;-1.7669;-5.023;3.9502;16.0721;16.2132;-2.7021;-1.9203;2.397;144.0;-34.69;-13.69;-15.9;213.53;10.38;121.38;5.0;65.646;39.468697;-0.339877;7.1;NaN;6.05;4.0;9.78;14 / 33;9718;2021-10-20 19:31:18:528
-2.2279;-11.003;-10.608;-6.9863;1.4126;-6.7373;3.9502;16.0721;16.2132;-14.2465;1.1671;0.422;144.0;-33.84;-17.81;-16.8;213.53;10.38;121.38;5.0;65.646;39.468697;-0.339877;7.1;NaN;6.05;4.0;9.78;14 / 33;9768;2021-10-20 19:31:18:578
7.781;-5.888;-2.841;-5.6838;-7.5082;-2.7342;-0.1089;5.4988;13.2013;-9.6822;1.0721;0.9375;144.0;-33.84;-17.81;-16.8;213.53;10.38;121.38;5.0;65.646;39.468697;-0.339877;7.1;NaN;6.05;4.0;9.78;14 / 33;9819;2021-10-20 19:31:18:629
15.386;9.0791;10.4141;4.3048;-7.2975;4.9368;-6.4078;-6.8538;2.1487;-9.6822;1.0721;0.9375;144.0;-35.64;-15.19;-14.51;354.09;49.97;115.69;5.0;59.041;39.468697;-0.339877;7.1;NaN;6.05;4.0;9.78;15 / 33;9869;2021-10-20 19:31:18:679
39.3581;26.289;17.1431;5.1236;-7.6662;3.3375;-6.4078;-6.8538;2.1487;-4.7052;0.4139;-5.0462;144.0;-38.34;-6.79;-10.2;354.09;49.97;115.69;5.0;59.041;39.468716;-0.339875;7.0;NaN;7.83;4.0;356.39;15 / 33;9919;2021-10-20 19:31:18:729
-5.0569;6.314;-0.651;7.6279;6.1148;-0.7757;-33.3271;-33.0166;-13.3106;10.4365;-1.5577;2.1713;157.0;-38.34;-6.79;-10.2;354.09;49.97;115.69;5.0;59.041;39.468716;-0.339875;7.0;NaN;7.83;4.0;356.39;15 / 33;9969;2021-10-20 19:31:18:779
-5.0569;6.314;-0.651;7.6279;6.1148;-0.7757;10.77;-10.4088;7.4707;10.4365;-1.5577;2.1713;157.0;-40.99;-1.39;-6.06;337.37;-38.57;-95.81;5.0;59.041;39.468716;-0.339875;7.0;NaN;7.83;4.0;356.39;15 / 33;10019;2021-10-20 19:31:18:829
-2.6591;5.553;-0.483;8.8155;4.2234;-0.7566;7.6249;-5.7765;9.4987;7.6527;0.1999;1.1399;157.0;-42.19;-0.96;-3.66;337.37;-38.57;-95.81;5.0;59.041;39.468716;-0.339875;7.0;NaN;7.83;4.0;356.39;15 / 33;10069;2021-10-20 19:31:18:879
-5.385;4.1021;-4.437;4.9752;6.5266;-5.3726;8.3499;1.9158;9.5238;6.7129;3.8719;-4.9555;157.0;-42.19;-0.96;-3.66;337.37;-38.57;-95.81;5.0;59.041;39.468716;-0.339875;7.0;NaN;7.83;4.0;356.39;15 / 33;10119;2021-10-20 19:31:18:929
0.794;5.139;6.503;6.0525;-0.9337;7.6614;8.3499;1.9158;9.5238;6.7129;3.8719;-4.9555;157.0;-42.06;-0.11;-2.1;94.74;5.46;-38.31;5.0;59.041;39.468716;-0.339875;7.0;NaN;7.83;4.0;356.39;15 / 33;10168;2021-10-20 19:31:18:978
7.662;18.141;10.56;7.9631;-3.3615;4.6352;-6.1646;-5.3783;-3.4778;2.0712;1.6004;-0.2724;157.0;-42.06;-0.11;-2.1;94.74;5.46;-38.31;5.0;64.456;39.468716;-0.339875;7.0;NaN;7.83;4.0;356.39;15 / 33;10219;2021-10-20 19:31:19:029
37.134;23.7731;17.2241;4.9273;-7.695;3.5674;-6.1646;-5.3783;-3.4778;2.0712;1.6004;-0.2724;157.0;-41.76;-0.36;-3.24;124.96;20.04;-59.8;5.0;64.456;39.468716;-0.339875;7.0;NaN;7.83;4.0;356.39;15 / 33;10269;2021-10-20 19:31:19:079
8.633;-3.111;5.546;-2.8443;-7.8961;5.0757;-35.8578;-16.1043;-11.2303;0.6351;-0.9184;2.4996;75.0;-41.16;-3.54;-7.31;149.94;51.67;-54.1;5.0;64.456;39.468716;-0.339875;7.0;NaN;7.83;4.0;356.39;15 / 33;10319;2021-10-20 19:31:19:129
8.633;-3.111;5.546;-2.8443;-7.8961;5.0757;-5.7833;10.6036;0.1037;0.1445;-1.2724;2.5563;75.0;-41.16;-3.54;-7.31;149.94;51.67;-54.1;5.0;64.456;39.468716;-0.339875;7.0;NaN;7.83;4.0;356.39;15 / 33;10369;2021-10-20 19:31:19:179
6.0461;-8.8661;-4.27;-7.5274;-5.1332;-3.6248;1.0876;16.6999;13.009;0.1445;-1.2724;2.5563;75.0;-38.64;-9.66;-12.71;337.9;31.57;115.71;5.0;64.456;39.468716;-0.339875;7.0;NaN;7.83;4.0;356.39;15 / 33;10418;2021-10-20 19:31:19:228
-3.6019;-12.659;-13.8679;-6.4931;1.8435;-7.1156;1.0876;16.6999;13.009;-11.9289;-3.4946;-2.8923;75.0;-38.64;-9.66;-12.71;337.9;31.57;115.71;5.0;64.456;39.468716;-0.339875;7.0;NaN;7.83;4.0;356.39;15 / 33;10469;2021-10-20 19:31:19:279
3.968;-9.177;-0.72;-8.9783;-3.8834;-0.6943;5.8864;10.0369;15.8048;-11.9289;-3.4946;-2.8923;75.0;-35.7;-16.09;-16.14;215.09;-10.83;137.62;5.0;61.508;39.468716;-0.339875;7.0;NaN;7.83;4.0;356.39;15 / 33;10519;2021-10-20 19:31:19:329
9.203;3.5231;1.3301;3.4716;-9.0788;1.3024;-3.8933;-3.877;6.1473;-10.0583;0.9434;2.3158;75.0;-36.24;-16.31;-15.41;90.1;23.33;94.42;5.0;61.508;39.468716;-0.339875;7.0;NaN;7.83;4.0;356.39;15 / 33;10569;2021-10-20 19:31:19:379
48.1001;29.046;18.914;4.8028;-7.9583;3.1268;-3.8933;-3.877;6.1473;-6.3254;0.3752;-1.8943;75.0;-36.24;-16.31;-15.41;90.1;23.33;94.42;5.0;61.508;39.468716;-0.339875;7.0;NaN;7.83;4.0;356.39;15 / 33;10618;2021-10-20 19:31:19:428
48.1001;29.046;18.914;4.8028;-7.9583;3.1268;-42.0261;-35.7168;-15.0633;-6.3254;0.3752;-1.8943;131.0;-39.06;-8.59;-12.41;90.1;23.33;94.42;5.0;61.508;39.468716;-0.339875;7.0;NaN;7.83;4.0;356.39;15 / 33;10669;2021-10-20 19:31:19:479
1.9691;6.9821;-1.2469;9.3087;-2.6193;-1.652;10.0645;-9.2104;9.7567;14.2421;-2.0716;4.6984;131.0;-41.34;-1.61;-8.7;232.53;15.49;-100.06;5.0;61.508;39.468716;-0.339875;7.0;NaN;7.83;4.0;356.39;15 / 33;10719;2021-10-20 19:31:19:529
-2.9719;4.8731;-1.9481;7.92;4.8363;-3.1699;10.0645;-9.2104;9.7567;9.4234;-0.436;2.1433;131.0;-41.34;-1.61;-8.7;232.53;15.49;-100.06;5.0;61.508;39.468716;-0.339875;7.0;NaN;7.83;4.0;356.39;15 / 33;10769;2021-10-20 19:31:19:579
-5.625;6.1301;-0.495;7.2209;6.6128;-0.5794;8.2232;-6.5675;8.2178;9.4234;-0.436;2.1433;131.0;-42.24;-0.79;-5.21;310.75;-29.55;-111.81;5.0;63.321;39.468716;-0.339875;7.0;NaN;7.83;4.0;356.39;15 / 33;10818;2021-10-20 19:31:19:628
-3.774;4.6481;1.8281;7.2832;5.9137;2.8635;12.2338;-1.7718;10.7688;7.216;4.2004;-4.5471;131.0;-42.79;-0.71;-2.21;30.27;-37.08;-68.54;5.0;63.321;39.46874;-0.339865;6.9;NaN;6.7;4.1;9.66;15 / 33;10868;2021-10-20 19:31:19:678
5.0291;9.012;6.537;7.2353;-4.0414;5.2433;-6.1458;-0.9476;-0.3713;2.8846;2.5191;-1.8033;131.0;-42.79;-0.71;-2.21;30.27;-37.08;-68.54;5.0;63.321;39.46874;-0.339865;6.9;NaN;6.7;4.1;9.66;15 / 33;10918;2021-10-20 19:31:19:728
5.0291;9.012;6.537;7.2353;-4.0414;5.2433;-6.1458;-0.9476;-0.3713;2.8846;2.5191;-1.8033;115.0;-43.56;-0.66;-1.31;122.34;24.34;-54.07;5.0;63.321;39.46874;-0.339865;6.9;NaN;6.7;4.1;9.66;15 / 33;10969;2021-10-20 19:31:19:779
46.6061;27.1481;18.057;4.6831;-8.0397;3.1125;-45.5968;-19.5615;-11.9102;0.8729;-1.3442;2.9211;115.0;-43.56;-0.66;-1.31;122.34;24.34;-54.07;5.0;63.321;39.46874;-0.339865;6.9;NaN;6.7;4.1;9.66;15 / 33;11019;2021-10-20 19:31:19:829
3.839;1.644;1.089;3.7302;-8.734;2.4565;-0.9309;5.8722;4.5303;0.8729;-1.3442;2.9211;115.0;-43.39;-1.86;-4.5;122.34;24.34;-54.07;5.0;63.321;39.46874;-0.339865;6.9;NaN;6.7;4.1;9.66;15 / 33;11068;2021-10-20 19:31:19:878
5.373;-4.308;-1.251;-6.0382;-7.5274;-1.7382;-0.9309;5.8722;4.5303;0.7105;-1.3465;2.7192;115.0;-41.4;-5.29;-11.34;358.5;50.15;106.06;5.0;63.321;39.46874;-0.339865;6.9;NaN;6.7;4.1;9.66;15 / 33;11118;2021-10-20 19:31:19:928
0.189;-6.417;-10.079;-5.272;-0.1437;-8.2696;0.539;12.755;8.7104;8.5272;2.7496;5.4225;115.0;-41.4;-5.29;-11.34;358.5;50.15;106.06;5.0;63.168;39.46874;-0.339865;6.9;NaN;6.7;4.1;9.66;15 / 33;11169;2021-10-20 19:31:19:979
-2.264;-9.787;-0.067;-9.5529;2.2075;-0.0527;9.7378;16.4312;4.3924;8.5272;2.7496;5.4225;115.0;-38.76;-9.96;-16.74;248.23;0.84;147.48;5.0;63.168;39.46874;-0.339865;6.9;NaN;6.7;4.1;9.66;15 / 33;11219;2021-10-20 19:31:20:029
7.724;-2.235;-3.468;-9.5529;2.2075;-0.0527;9.7378;16.4312;4.3924;10.3481;-3.3982;0.8311;115.0;-38.46;-10.91;-16.86;138.97;-13.01;90.32;5.0;63.168;39.46874;-0.339865;6.9;NaN;6.7;4.1;9.66;15 / 33;11269;2021-10-20 19:31:20:079
7.724;-2.235;-3.468;-2.5043;-8.6526;-3.8786;0.3788;9.8634;-7.2663;7.1115;-1.3747;0.4648;143.0;-38.46;-10.91;-16.86;138.97;-13.01;90.32;5.0;63.168;39.46874;-0.339865;6.9;NaN;6.7;4.1;9.66;15 / 33;11319;2021-10-20 19:31:20:129
30.377;16.07;13.8371;4.2521;-8.0445;3.6631;-12.5097;-7.2745;-14.1271;7.1115;-1.3747;0.4648;143.0;-40.74;-6.96;-14.16;156.4;55.1;-49.26;5.0;63.168;39.46874;-0.339865;6.9;NaN;6.7;4.1;9.66;15 / 33;11369;2021-10-20 19:31:20:179
23.268;18.0791;7.587;8.011;-5.6359;-0.5267;-15.337;-16.6863;-13.1914;-5.0443;4.2966;-0.5204;143.0;-40.74;-6.96;-14.16;156.4;55.1;-49.26;5.0;63.168;39.46874;-0.339865;6.9;NaN;6.7;4.1;9.66;15 / 33;11419;2021-10-20 19:31:20:229
-2.817;5.8211;-4.691;8.6335;3.4524;-3.122;11.1058;-2.4488;0.6925;-5.281;1.1604;-0.9086;143.0;-42.49;0.19;-10.74;210.12;35.07;-93.76;5.0;63.653;39.46874;-0.339865;6.9;NaN;6.7;4.1;9.66;15 / 33;11469;2021-10-20 19:31:20:279
-3.71;5.7731;-0.3919;8.6335;3.4524;-3.122;11.1058;-2.4488;0.6925;-5.281;1.1604;-0.9086;143.0;-42.96;3.84;-7.31;210.12;35.07;-93.76;5.0;63.653;39.46874;-0.339865;6.9;NaN;6.7;4.1;9.66;15 / 33;11519;2021-10-20 19:31:20:329
-6.627;1.424;5.208;5.9855;7.7668;-0.2442;11.732;-0.8798;-2.4299;-2.0615;-1.1169;-3.5555;143.0;-42.96;3.84;-7.31;210.12;35.07;-93.76;5.0;63.653;39.46874;-0.339865;6.9;NaN;6.7;4.1;9.66;15 / 33;11569;2021-10-20 19:31:20:379
-6.627;1.424;5.208;2.2266;3.4764;8.8969;3.326;4.4067;-11.7358;-2.0615;-1.1169;-3.5555;143.0;-43.2;3.24;-4.5;350.86;-52.36;-92.34;5.0;63.653;39.46874;-0.339865;6.9;NaN;6.7;4.1;9.66;15 / 33;11618;2021-10-20 19:31:20:428
4.7081;5.976;5.9021;8.2696;-4.7357;2.3176;3.326;4.4067;-11.7358;-1.1744;-2.1711;-6.8761;87.0;-43.2;0.54;-4.91;350.86;-52.36;-92.34;5.0;63.653;39.46874;-0.339865;6.9;NaN;6.7;4.1;9.66;15 / 33;11668;2021-10-20 19:31:20:478
15.134;23.783;12.7031;8.2696;-4.7357;2.3176;-12.7507;-14.2758;-13.0789;-1.1744;-2.1711;-6.8761;87.0;-43.2;0.54;-4.91;350.86;-52.36;-92.34;5.0;63.653;39.46874;-0.339865;6.9;NaN;6.7;4.1;9.66;15 / 33;11718;2021-10-20 19:31:20:528
27.732;11.6681;5.244;4.4867;-8.2121;2.9353;-12.7507;-14.2758;-13.0789;-1.1744;-2.1711;-6.8761;87.0;-42.0;-2.89;-9.11;156.28;56.86;-56.81;5.0;63.653;39.46874;-0.339865;6.9;NaN;6.7;4.1;9.66;15 / 33;11768;2021-10-20 19:31:20:578
1.8881;-5.775;0.986;-7.2592;-6.5697;-0.6225;-8.1558;6.2999;0.4243;-3.0496;-1.2063;1.7254;87.0;-42.0;-2.89;-9.11;156.28;56.86;-56.81;5.0;65.229;39.46874;-0.339865;6.9;NaN;6.7;4.1;9.66;15 / 33;11819;2021-10-20 19:31:20:629
-0.5119;-10.4479;-5.7131;-9.6343;-1.4796;-1.0534;2.1663;15.4881;0.2935;-2.2334;-1.1466;2.8637;87.0;-39.9;-8.46;-14.64;28.08;42.04;94.9;5.0;65.229;39.46877;-0.339888;6.9;NaN;7.29;4.0;6.81;15 / 33;11869;2021-10-20 19:31:20:679
-0.5119;-10.4479;-5.7131;-9.6343;-1.4796;-1.0534;2.1663;15.4881;0.2935;-2.2334;-1.1466;2.8637;87.0;-38.4;-14.46;-16.61;28.08;42.04;94.9;5.0;65.229;39.46877;-0.339888;6.9;NaN;7.29;4.0;6.81;15 / 33;11918;2021-10-20 19:31:20:728
-2.125;-9.227;-7.7449;-7.3981;1.7047;-6.2058;10.2797;16.4911;9.2112;9.7045;-4.572;2.6157;119.0;-38.4;-14.46;-16.61;28.08;42.04;94.9;5.0;65.229;39.46877;-0.339888;6.9;NaN;7.29;4.0;6.81;15 / 33;11968;2021-10-20 19:31:20:778
9.732;-4.047;0.287;-3.7637;-9.0501;0.2682;-3.7371;6.0512;-7.7889;9.7045;-4.572;2.6157;119.0;-38.89;-14.21;-14.51;30.98;67.37;85.92;5.0;65.229;39.46877;-0.339888;6.9;NaN;7.29;4.0;6.81;15 / 33;12018;2021-10-20 19:31:20:828
19.778;13.014;11.118;4.8794;-7.4172;4.1659;-13.7036;-13.5593;-18.7943;6.2039;-1.8373;0.7587;119.0;-40.09;-8.16;-13.61;156.42;49.14;-49.51;5.0;65.229;39.46877;-0.339888;6.9;NaN;7.29;4.0;6.81;15 / 33;12068;2021-10-20 19:31:20:878
32.235;20.135;9.9881;5.023;-8.0445;2.49;-13.7036;-13.5593;-18.7943;-1.3321;5.3774;-1.8411;119.0;-40.09;-8.16;-13.61;156.42;49.14;-49.51;5.0;62.319;39.46877;-0.339888;6.9;NaN;7.29;4.0;6.81;15 / 33;12118;2021-10-20 19:31:20:928
-4.6481;3.434;-3.762;4.8842;6.608;-5.3486;-5.8646;-10.3248;-9.381;-1.3321;5.3774;-1.8411;119.0;-41.16;-0.66;-10.26;156.42;49.14;-49.51;5.0;62.319;39.46877;-0.339888;6.9;NaN;7.29;4.0;6.81;15 / 33;12168;2021-10-20 19:31:20:978
-4.6481;3.434;-3.762;4.8842;6.608;-5.3486;11.7392;0.1176;-0.394;-6.516;0.9911;-0.9383;119.0;-41.16;-0.66;-10.26;156.42;49.14;-49.51;5.0;62.319;39.46877;-0.339888;6.9;NaN;7.29;4.0;6.81;15 / 33;12218;2021-10-20 19:31:21:028
-0.174;4.839;-0.6461;9.7157;0.3304;-1.2881;11.7392;0.1176;-0.394;-2.8857;-0.4458;-2.1619;119.0;-42.49;3.66;-5.34;297.17;-1.93;-97.55;5.0;62.319;39.46877;-0.339888;6.9;NaN;7.29;4.0;6.81;15 / 33;12269;2021-10-20 19:31:21:079
-3.2809;4.2461;-0.55;7.7237;5.9616;-0.9912;9.4149;0.9384;-1.1172;-2.8857;-0.4458;-2.1619;111.0;-43.09;4.99;-2.64;297.17;-1.93;-97.55;5.0;62.319;39.46877;-0.339888;6.9;NaN;7.29;4.0;6.81;15 / 33;12319;2021-10-20 19:31:21:129
-1.397;6.221;2.441;8.9974;-2.557;2.9449;5.382;2.1921;-5.5393;-1.5258;-2.0278;-4.8311;111.0;-43.09;4.99;-2.64;297.17;-1.93;-97.55;5.0;62.319;39.46877;-0.339888;6.9;NaN;7.29;4.0;6.81;15 / 33;12369;2021-10-20 19:31:21:179
9.5021;12.87;7.769;8.9974;-2.557;2.9449;5.382;2.1921;-5.5393;-1.5258;-2.0278;-4.8311;111.0;-42.84;5.21;-2.16;117.57;15.11;-71.88;5.0;65.406;39.46877;-0.339888;6.9;NaN;7.29;4.0;6.81;15 / 33;12419;2021-10-20 19:31:21:229
34.193;19.646;17.583;7.3119;-4.2042;5.0039;-6.7889;-3.6085;-9.583;-3.1197;-0.7653;-1.074;111.0;-42.3;2.21;-4.56;126.05;25.38;-55.61;5.0;65.406;39.46877;-0.339888;6.9;NaN;7.29;4.0;6.81;15 / 33;12468;2021-10-20 19:31:21:278
17.255;4.389;-1.9481;4.0989;-8.7963;1.4126;-33.1515;-7.7427;-5.3752;-2.8973;-0.857;2.02;111.0;-42.3;2.21;-4.56;126.05;25.38;-55.61;5.0;65.406;39.46877;-0.339888;6.9;NaN;7.29;4.0;6.81;15 / 33;12519;2021-10-20 19:31:21:329
17.255;4.389;-1.9481;-2.0207;-9.5624;0.8332;-4.7584;10.523;0.5271;-2.8973;-0.857;2.02;111.0;-41.16;-2.16;-9.36;35.84;77.12;67.59;5.0;65.406;39.46877;-0.339888;6.9;NaN;7.29;4.0;6.81;15 / 33;12569;2021-10-20 19:31:21:379
5.072;-6.8621;3.147;-8.6239;-4.2521;-1.9249;-4.7584;10.523;0.5271;-1.5866;-0.6458;2.6718;111.0;-41.16;-2.16;-9.36;35.84;77.12;67.59;5.0;65.406;39.46877;-0.339888;6.9;NaN;7.29;4.0;6.81;15 / 33;12619;2021-10-20 19:31:21:429
-0.225;-8.6;-11.319;-6.1627;1.8052;-7.4124;4.6399;15.3605;8.6502;10.462;1.5016;2.596;108.0;-38.59;-7.99;-15.3;29.83;25.7;102.58;5.0;65.406;39.46877;-0.339888;6.9;NaN;7.29;4.0;6.81;15 / 33;12669;2021-10-20 19:31:21:479
-0.5089;-8.449;-1.4861;-9.4379;-2.6145;0.5411;9.9813;14.7459;3.3363;10.462;1.5016;2.596;108.0;-36.49;-13.14;-18.3;219.59;-10.61;140.26;5.0;65.406;39.46877;-0.339888;6.9;NaN;7.29;4.0;6.81;15 / 33;12718;2021-10-20 19:31:21:528
8.483;-1.625;-3.667;-9.4379;-2.6145;0.5411;1.0503;6.562;-5.3661;7.8236;-3.8001;1.9712;108.0;-36.49;-13.14;-18.3;219.59;-10.61;140.26;5.0;62.0;39.46877;-0.339888;6.9;NaN;7.29;4.0;6.81;15 / 33;12768;2021-10-20 19:31:21:578
30.279;19.785;15.017;1.1827;-9.663;-1.1827;1.0503;6.562;-5.3661;7.8236;-3.8001;1.9712;108.0;-36.84;-11.51;-17.34;219.59;-10.61;140.26;5.0;62.0;39.46877;-0.339888;6.9;NaN;7.29;4.0;6.81;15 / 33;12818;2021-10-20 19:31:21:628
30.279;19.785;15.017;4.6448;-8.0062;3.2465;-23.7057;-20.6654;-22.2336;5.0116;0.0964;-0.2497;108.0;-38.89;-5.21;-13.14;161.56;54.71;-55.05;5.0;62.0;39.46877;-0.339907;7.0;NaN;0.0;3.9;6.81;15 / 33;12869;2021-10-20 19:31:21:679
21.9371;14.886;9.713;7.7955;3.9169;4.4819;-13.7007;-13.9831;-14.9722;-4.6571;3.3679;-1.3139;108.0;-38.89;-5.21;-13.14;161.56;54.71;-55.05;5.0;62.0;39.46877;-0.339907;7.0;NaN;0.0;3.9;6.81;15 / 33;12919;2021-10-20 19:31:21:729
-5.16;4.5;-2.412;8.9926;1.5371;-3.5961;13.6557;-1.3303;-1.3018;-4.6571;3.3679;-1.3139;108.0;-40.8;-2.21;-9.06;41.75;-23.54;-60.1;5.0;62.0;39.46877;-0.339907;7.0;NaN;0.0;3.9;6.81;15 / 33;12969;2021-10-20 19:31:21:779
-1.527;5.3831;-0.828;8.9926;1.5371;-3.5961;13.6557;-1.3303;-1.3018;-5.6409;0.6622;-1.3288;139.0;-40.8;-2.21;-9.06;41.75;-23.54;-60.1;5.0;62.0;39.46877;-0.339907;7.0;NaN;0.0;3.9;6.81;15 / 33;13019;2021-10-20 19:31:21:829
-6.855;1.632;1.1531;5.9807;7.2832;-2.7198;9.6941;-0.5048;-1.5652;-0.6044;-2.6411;-7.6238;139.0;-41.64;-1.61;-5.76;317.81;-47.95;-114.45;5.0;65.97;39.46877;-0.339907;7.0;NaN;0.0;3.9;6.81;15 / 33;13069;2021-10-20 19:31:21:879
2.51;6.3911;3.722;6.292;0.4597;7.5082;8.0509;6.1916;-6.7853;-0.6044;-2.6411;-7.6238;139.0;-41.64;-0.24;-3.6;317.81;-47.95;-114.45;5.0;65.97;39.46877;-0.339907;7.0;NaN;0.0;3.9;6.81;15 / 33;13118;2021-10-20 19:31:21:928
2.51;6.3911;3.722;8.2839;-3.1939;4.1659;8.0509;6.1916;-6.7853;-2.3225;-1.2638;-4.6775;139.0;-41.64;-0.24;-3.6;317.81;-47.95;-114.45;5.0;65.97;39.46877;-0.339907;7.0;NaN;0.0;3.9;6.81;15 / 33;13168;2021-10-20 19:31:21:978
5.8571;22.49;11.2451;4.4867;-7.6231;4.2425;-5.4646;-7.1625;-9.9094;-3.5069;-1.4004;0.9152;139.0;-41.64;-1.26;-4.74;133.98;19.01;-63.3;5.0;65.97;39.46877;-0.339907;7.0;NaN;0.0;3.9;6.81;15 / 33;13219;2021-10-20 19:31:22:029
35.349;15.3401;10.122;4.4867;-7.6231;4.2425;-33.4639;-5.7618;-9.1413;-3.5069;-1.4004;0.9152;139.0;-40.39;-4.61;-9.66;146.95;50.99;-46.6;5.0;65.97;39.46877;-0.339907;7.0;NaN;0.0;3.9;6.81;15 / 33;13269;2021-10-20 19:31:22:079
5.3681;-5.309;-0.6581;-1.3934;-9.4379;-2.2649;-1.9262;14.2545;2.6841;-2.2047;-1.2853;2.5878;153.0;-40.39;-4.61;-9.66;146.95;50.99;-46.6;5.0;65.97;39.46877;-0.339907;7.0;NaN;0.0;3.9;6.81;15 / 33;13319;2021-10-20 19:31:22:129
4.038;-10.718;-4.988;-8.4132;-3.1699;-3.9169;-1.9262;14.2545;2.6841;-2.2047;-1.2853;2.5878;153.0;-36.36;-11.81;-16.61;322.97;74.26;148.4;5.0;65.97;39.46877;-0.339907;7.0;NaN;0.0;3.9;6.81;15 / 33;13369;2021-10-20 19:31:22:179
-2.0081;-12.2741;-11.238;-7.1826;1.1732;-6.5745;1.2305;18.8375;6.5191;8.7644;5.4869;5.1085;153.0;-36.36;-11.81;-16.61;322.97;74.26;148.4;5.0;63.932;39.46877;-0.339907;7.0;NaN;0.0;3.9;6.81;15 / 33;13418;2021-10-20 19:31:22:228
-2.0081;-12.2741;-11.238;-7.1826;1.1732;-6.5745;6.2221;16.7149;1.7706;9.1464;-3.081;2.5681;153.0;-32.64;-18.11;-20.04;198.58;-6.87;132.47;5.0;63.932;39.46877;-0.339907;7.0;NaN;0.0;3.9;6.81;15 / 33;13468;2021-10-20 19:31:22:278
6.62;-6.802;1.314;-6.9575;-6.7804;1.3408;-3.5359;4.0847;-9.9775;9.1464;-3.081;2.5681;153.0;-32.76;-17.76;-19.26;74.49;43.74;79.09;5.0;63.932;39.46877;-0.339907;7.0;NaN;0.0;3.9;6.81;15 / 33;13518;2021-10-20 19:31:22:328
15.1031;10.6031;8.868;5.0326;-7.1251;4.4772;-3.5359;4.0847;-9.9775;6.3224;-0.9588;1.4279;153.0;-32.76;-17.76;-19.26;74.49;43.74;79.09;5.0;63.932;39.46877;-0.339907;7.0;NaN;0.0;3.9;6.81;15 / 33;13568;2021-10-20 19:31:22:378
43.518;25.0271;14.718;5.4253;-8.1355;0.7709;-21.8872;-21.2145;-25.0115;1.7761;5.5182;-2.7921;153.0;-35.76;-10.39;-17.4;74.49;43.74;79.09;5.0;63.932;39.46877;-0.339907;7.0;NaN;0.0;3.9;6.81;15 / 33;13618;2021-10-20 19:31:22:428
0.995;5.9411;0.485;5.4253;-8.1355;0.7709;-3.8505;-11.5327;-1.5815;1.7761;5.5182;-2.7921;166.0;-38.59;-1.61;-14.04;193.54;56.04;-81.91;5.0;63.932;39.46877;-0.339907;7.0;NaN;0.0;3.9;6.81;15 / 33;13668;2021-10-20 19:31:22:478
-5.402;1.668;0.093;4.3239;8.6239;1.7621;-3.8505;-11.5327;-1.5815;-6.5495;0.6329;-1.789;166.0;-38.59;-1.61;-14.04;193.54;56.04;-81.91;5.0;61.626;39.46877;-0.339907;7.0;NaN;0.0;3.9;6.81;15 / 33;13718;2021-10-20 19:31:22:528
-5.402;1.668;0.093;4.6735;8.6;-0.6129;14.1175;1.928;-2.7612;-6.5495;0.6329;-1.789;166.0;-39.49;1.09;-10.26;335.74;-61.27;-97.47;5.0;61.626;39.46877;-0.339907;7.0;NaN;0.0;3.9;6.81;15 / 33;13768;2021-10-20 19:31:22:578
-6.8501;2.501;-3.667;3.7541;8.8777;-1.7957;14.0299;3.527;0.7997;-2.9527;-1.7024;-3.4895;166.0;-39.49;1.09;-10.26;335.74;-61.27;-97.47;5.0;61.626;39.46877;-0.339907;7.0;NaN;0.0;3.9;6.81;15 / 33;13818;2021-10-20 19:31:22:628
-0.909;4.44;3.851;8.5521;-2.7007;3.9696;-0.1098;3.1744;-5.8866;-0.9952;-2.1535;-7.4867;166.0;-39.84;0.84;-8.16;335.74;-61.27;-97.47;5.0;61.626;39.468784;-0.339877;7.2;NaN;7.41;3.3;34.61;16 / 33;13869;2021-10-20 19:31:22:679
5.775;14.1941;4.827;7.9104;-3.3088;4.7549;-0.1098;3.1744;-5.8866;-0.9952;-2.1535;-7.4867;166.0;-40.44;0.41;-8.34;138.72;15.98;-65.1;5.0;61.626;39.468784;-0.339877;7.2;NaN;7.41;3.3;34.61;16 / 33;13918;2021-10-20 19:31:22:728
38.736;27.608;22.0571;4.6543;-8.1546;2.8299;-8.0676;-10.7447;-14.1633;-3.1362;-1.8828;-0.1495;139.0;-40.44;0.41;-8.34;138.72;15.98;-65.1;5.0;61.626;39.468784;-0.339877;7.2;NaN;7.41;3.3;34.61;16 / 33;13969;2021-10-20 19:31:22:779
13.667;1.895;3.65;4.6543;-8.1546;2.8299;-35.962;-11.6746;-12.871;-2.9474;-1.4777;2.6873;139.0;-39.96;-1.61;-11.21;161.63;56.26;-58.7;5.0;64.186;39.468784;-0.339877;7.2;NaN;7.41;3.3;34.61;16 / 33;14019;2021-10-20 19:31:22:829
2.609;-11.5541;0.6791;-7.2544;-6.0238;2.7007;1.1823;18.3604;-0.456;-2.9474;-1.4777;2.6873;139.0;-37.44;-7.44;-15.41;161.63;56.26;-58.7;5.0;64.186;39.468784;-0.339877;7.2;NaN;7.41;3.3;34.61;16 / 33;14069;2021-10-20 19:31:22:879
2.609;-11.5541;0.6791;-8.6335;-0.68;-4.6017;1.1823;18.3604;-0.456;-2.9215;-1.4486;2.8966;139.0;-37.44;-7.44;-15.41;161.63;56.26;-58.7;5.0;64.186;39.468784;-0.339877;7.2;NaN;7.41;3.3;34.61;16 / 33;14119;2021-10-20 19:31:22:929
-6.101;-13.251;-16.575;-9.4715;0.158;-2.5283;8.2615;20.8334;15.4998;11.851;-0.7142;3.7593;139.0;-34.2;-14.64;-18.54;176.39;3.98;118.06;5.0;64.186;39.468784;-0.339877;7.2;NaN;7.41;3.3;34.61;16 / 33;14169;2021-10-20 19:31:22:979
4.629;-9.5959;0.828;-9.4715;0.158;-2.5283;2.0198;15.2316;-5.3203;11.851;-0.7142;3.7593;139.0;-34.2;-14.64;-18.54;176.39;3.98;118.06;5.0;64.186;39.468784;-0.339877;7.2;NaN;7.41;3.3;34.61;16 / 33;14219;2021-10-20 19:31:23:029
14.687;3.3701;0.768;-1.4126;-9.7013;-0.182;-8.3269;-1.4163;-7.9724;7.7755;-2.3797;2.2545;139.0;-33.66;-15.24;-18.9;148.43;-0.92;104.95;5.0;64.186;39.468784;-0.339877;7.2;NaN;7.41;3.3;34.61;16 / 33;14268;2021-10-20 19:31:23:078
50.192;30.485;20.343;4.3;-7.5082;4.616;-8.3269;-1.4163;-7.9724;7.7755;-2.3797;2.2545;163.0;-35.94;-8.59;-16.8;156.6;49.96;-42.97;5.0;64.186;39.468784;-0.339877;7.2;NaN;7.41;3.3;34.61;16 / 33;14318;2021-10-20 19:31:23:128
-1.438;5.261;1.943;8.916;2.4277;3.2801;-30.9627;-24.1704;-15.4174;3.9581;5.7252;-1.7929;163.0;-35.94;-8.59;-16.8;156.6;49.96;-42.97;5.0;59.835;39.468784;-0.339877;7.2;NaN;7.41;3.3;34.61;16 / 33;14369;2021-10-20 19:31:23:179
-1.438;5.261;1.943;8.916;2.4277;3.2801;17.0281;-0.2127;-4.4079;-6.621;0.9478;-1.4805;163.0;-38.4;-1.74;-12.54;6.55;-14.33;-69.8;5.0;59.835;39.468784;-0.339877;7.2;NaN;7.41;3.3;34.61;16 / 33;14419;2021-10-20 19:31:23:229
-4.672;3.023;-0.9229;5.2433;8.1355;-1.5897;17.0281;-0.2127;-4.4079;-6.621;0.9478;-1.4805;163.0;-40.09;0.54;-8.46;6.55;-14.33;-69.8;5.0;59.835;39.468784;-0.339877;7.2;NaN;7.41;3.3;34.61;16 / 33;14468;2021-10-20 19:31:23:278
-4.37;5.33;-4.2341;6.4691;5.296;-5.1284;10.3923;-0.0448;0.3162;-3.678;-0.9417;-3.0161;163.0;-40.09;0.54;-8.46;6.55;-14.33;-69.8;5.0;59.835;39.468784;-0.339877;7.2;NaN;7.41;3.3;34.61;16 / 33;14518;2021-10-20 19:31:23:328
-2.958;3.882;3.444;6.3829;4.8602;5.6407;6.6593;4.5579;-6.7826;0.0437;-3.146;-6.1214;163.0;-40.74;1.26;-6.66;49.98;-29.71;-48.53;5.0;59.835;39.468784;-0.339877;7.2;NaN;7.41;3.3;34.61;16 / 33;14568;2021-10-20 19:31:23:378
7.4801;13.1531;6.836;7.7716;-4.4197;4.0366;6.6593;4.5579;-6.7826;0.0437;-3.146;-6.1214;163.0;-40.74;1.26;-6.66;49.98;-29.71;-48.53;5.0;59.835;39.468784;-0.339877;7.2;NaN;7.41;3.3;34.61;16 / 33;14619;2021-10-20 19:31:23:429
35.504;26.207;22.713;5.1811;-7.015;4.4867;-5.9424;-3.8566;-9.574;-3.1199;-1.3892;-0.5459;121.0;-41.1;-0.19;-6.54;144.59;26.78;-62.55;5.0;64.28;39.468784;-0.339877;7.2;NaN;7.41;3.3;34.61;16 / 33;14669;2021-10-20 19:31:23:479
35.504;26.207;22.713;5.1811;-7.015;4.4867;-37.1402;-11.3673;-14.2601;-3.1199;-1.3892;-0.5459;121.0;-40.74;-4.01;-8.94;145.52;45.67;-49.11;5.0;64.28;39.468784;-0.339877;7.2;NaN;7.41;3.3;34.61;16 / 33;14719;2021-10-20 19:31:23:529
14.2901;3.746;0.098;2.4852;-9.4858;0.0622;-37.1402;-11.3673;-14.2601;-3.1144;-1.2418;2.4827;121.0;-40.74;-4.01;-8.94;145.52;45.67;-49.11;5.0;64.28;39.468784;-0.339877;7.2;NaN;7.41;3.3;34.61;16 / 33;14769;2021-10-20 19:31:23:579
4.109;-7.614;2.7311;-8.2361;-4.4341;2.9449;0.9939;14.6651;-1.8901;-2.8649;-1.4363;2.533;121.0;-37.86;-9.54;-13.91;145.52;45.67;-49.11;5.0;64.28;39.468784;-0.339877;7.2;NaN;7.41;3.3;34.61;16 / 33;14819;2021-10-20 19:31:23:629
-1.1171;-10.7951;-13.851;-6.019;0.6225;-7.7189;2.6094;17.8344;8.6045;-2.8649;-1.4363;2.533;121.0;-37.86;-9.54;-13.91;145.52;45.67;-49.11;5.0;64.28;39.468815;-0.339868;7.1;NaN;7.54;3.1;30.3;18 / 33;14868;2021-10-20 19:31:23:678
0.978;-11.242;-0.9041;-9.7396;-0.838;-0.7805;10.3517;18.4833;6.2819;10.8717;-2.173;2.6986;121.0;-34.5;-15.24;-18.24;222.47;-3.64;142.05;5.0;64.28;39.468815;-0.339868;7.1;NaN;7.54;3.1;30.3;18 / 33;14918;2021-10-20 19:31:23:728
8.7671;-1.522;-3.657;-9.7396;-0.838;-0.7805;10.3517;18.4833;6.2819;7.1089;-2.4989;1.9576;121.0;-34.44;-15.11;-18.54;222.47;-3.64;142.05;5.0;64.28;39.468815;-0.339868;7.1;NaN;7.54;3.1;30.3;18 / 33;14968;2021-10-20 19:31:23:778
8.7671;-1.522;-3.657;2.6336;-8.7532;-3.5482;-3.0124;2.8427;-4.1848;7.1089;-2.4989;1.9576;160.0;-34.44;-15.11;-18.54;222.47;-3.64;142.05;5.0;61.353;39.468815;-0.339868;7.1;NaN;7.54;3.1;30.3;18 / 33;15018;2021-10-20 19:31:23:828
40.227;24.771;30.14;4.8937;-7.5753;3.8595;-33.5673;-25.8752;-37.2459;6.2673;5.3712;-2.2623;160.0;-36.49;-9.24;-15.71;253.02;63.21;-143.42;5.0;61.353;39.468815;-0.339868;7.1;NaN;7.54;3.1;30.3;18 / 33;15068;2021-10-20 19:31:23:878
14.522;14.634;-0.617;9.2847;-0.6752;-3.0885;-33.5673;-25.8752;-37.2459;6.2673;5.3712;-2.2623;160.0;-38.34;-3.66;-10.61;253.02;63.21;-143.42;5.0;61.353;39.468815;-0.339868;7.1;NaN;7.54;3.1;30.3;18 / 33;15118;2021-10-20 19:31:23:928
-3.523;3.2741;-3.8029;4.2329;8.5186;-2.3846;7.9295;-6.2867;-2.1703;-6.9415;1.6488;-1.4179;160.0;-38.34;-3.66;-10.61;253.02;63.21;-143.42;5.0;61.353;39.468815;-0.339868;7.1;NaN;7.54;3.1;30.3;18 / 33;15168;2021-10-20 19:31:23:978
-5.926;2.156;0.0761;4.2329;8.5186;-2.3846;15.1268;3.2083;-3.1788;-4.4747;-0.2093;-1.6643;160.0;-40.2;-3.11;-4.56;318.01;-60.3;-119.39;5.0;61.353;39.468815;-0.339868;7.1;NaN;7.54;3.1;30.3;18 / 33;15218;2021-10-20 19:31:24:028
-4.617;4.713;-1.2469;4.7405;8.2839;-2.2601;12.5468;2.872;-0.8884;-4.4747;-0.2093;-1.6643;160.0;-40.2;-3.11;-4.56;318.01;-60.3;-119.39;5.0;61.353;39.468815;-0.339868;7.1;NaN;7.54;3.1;30.3;18 / 33;15268;2021-10-20 19:31:24:078
-4.617;4.713;-1.2469;7.0437;-2.964;6.1483;12.5468;2.872;-0.8884;0.0465;-4.5585;-6.6001;133.0;-41.1;-3.66;-1.5;327.17;-57.63;-115.49;5.0;62.612;39.468815;-0.339868;7.1;NaN;7.54;3.1;30.3;18 / 33;15318;2021-10-20 19:31:24:128
3.1931;10.388;8.94;7.7093;-3.8259;4.707;-1.163;0.3825;-11.4997;-3.8233;-1.7876;-2.1308;133.0;-41.16;-3.24;-1.61;327.17;-57.63;-115.49;5.0;62.612;39.468815;-0.339868;7.1;NaN;7.54;3.1;30.3;18 / 33;15368;2021-10-20 19:31:24:178
38.997;32.591;18.4541;4.1946;-8.6574;1.901;-38.0821;-22.9843;-20.2482;-3.8233;-1.7876;-2.1308;133.0;-41.16;-3.24;-1.61;327.17;-57.63;-115.49;5.0;62.612;39.468815;-0.339868;7.1;NaN;7.54;3.1;30.3;18 / 33;15418;2021-10-20 19:31:24:228
16.097;4.574;1.113;4.1946;-8.6574;1.901;-13.8135;4.9765;-1.0068;-3.5791;-1.6666;2.5706;133.0;-40.8;-4.91;-4.31;160.14;61.99;-65.62;5.0;62.612;39.468815;-0.339868;7.1;NaN;7.54;3.1;30.3;18 / 33;15468;2021-10-20 19:31:24:278
10.524;-5.574;3.822;-1.9106;-9.4571;1.7573;-13.8135;4.9765;-1.0068;-3.5791;-1.6666;2.5706;133.0;-38.4;-10.09;-10.44;61.73;74.65;47.39;5.0;62.612;39.468815;-0.339868;7.1;NaN;7.54;3.1;30.3;18 / 33;15518;2021-10-20 19:31:24:328
-0.0881;-10.7329;-8.43;-8.5473;-3.6631;-3.1172;-6.6107;14.4785;-2.5573;-2.3474;-1.2959;3.0496;133.0;-38.4;-10.09;-10.44;61.73;74.65;47.39;5.0;62.612;39.468815;-0.339868;7.1;NaN;7.54;3.1;30.3;18 / 33;15568;2021-10-20 19:31:24:378
-1.139;-10.7569;-5.119;-8.8155;0.929;-4.1899;10.2179;19.0107;9.9084;10.9658;1.2301;2.6932;133.0;-35.04;-16.01;-15.71;99.59;21.93;110.04;5.0;62.235;39.468815;-0.339868;7.1;NaN;7.54;3.1;30.3;18 / 33;15619;2021-10-20 19:31:24:429
-1.139;-10.7569;-5.119;-8.8155;0.929;-4.1899;10.2179;19.0107;9.9084;10.9658;1.2301;2.6932;141.0;-33.66;-17.59;-17.46;99.59;21.93;110.04;5.0;62.235;39.468815;-0.339868;7.1;NaN;7.54;3.1;30.3;18 / 33;15669;2021-10-20 19:31:24:479
6.0311;-5.2729;-3.145;-2.8347;-9.2416;-1.6568;1.3042;9.2334;-5.8376;7.1383;-2.7064;2.4014;141.0;-33.66;-17.59;-17.46;99.59;21.93;110.04;5.0;62.235;39.468815;-0.339868;7.1;NaN;7.54;3.1;30.3;18 / 33;15719;2021-10-20 19:31:24:529
17.6981;11.3171;6.8261;4.9512;-7.8913;3.0598;-6.3327;-3.3077;-11.4891;4.8223;1.8454;-0.5067;141.0;-35.4;-13.44;-16.8;354.71;70.44;120.3;5.0;62.235;39.468815;-0.339868;7.1;NaN;7.54;3.1;30.3;18 / 33;15769;2021-10-20 19:31:24:579
43.908;25.745;18.107;5.2433;-7.5657;3.3902;-36.0101;-26.552;-23.8713;4.8223;1.8454;-0.5067;141.0;-35.4;-13.44;-16.8;354.71;70.44;120.3;5.0;62.235;39.468815;-0.339868;7.1;NaN;7.54;3.1;30.3;18 / 33;15819;2021-10-20 19:31:24:629
-4.231;3.815;-1.565;5.2433;-7.5657;3.3902;-36.0101;-26.552;-23.8713;-5.3765;3.3796;-1.7094;141.0;-38.46;-5.04;-12.9;163.71;50.47;-57.11;5.0;62.235;39.46884;-0.339858;6.8;NaN;7.67;3.0;32.16;19 / 33;15868;2021-10-20 19:31:24:678
-4.04;3.978;-2.57;4.1037;6.9528;-5.5737;14.6336;-0.8956;0.8724;-6.1108;0.3934;-1.2503;141.0;-39.96;-1.39;-9.41;163.71;50.47;-57.11;5.0;62.235;39.46884;-0.339858;6.8;NaN;7.67;3.0;32.16;19 / 33;15918;2021-10-20 19:31:24:728
-4.04;3.978;-2.57;5.6647;7.5753;-2.5762;14.6336;-0.8956;0.8724;-6.1108;0.3934;-1.2503;112.0;-39.96;-1.39;-9.41;163.71;50.47;-57.11;5.0;61.544;39.46884;-0.339858;6.8;NaN;7.67;3.0;32.16;19 / 33;15969;2021-10-20 19:31:24:779
-6.984;2.726;-1.914;3.7541;9.0597;-0.2011;13.9117;2.4294;-1.0156;-0.0336;-4.2005;-6.962;112.0;-40.5;-1.99;-8.04;315.55;-50.6;-114.45;5.0;61.544;39.46884;-0.339858;6.8;NaN;7.67;3.0;32.16;19 / 33;16019;2021-10-20 19:31:24:829
-0.196;3.528;4.8131;6.4117;-4.5921;5.8323;2.753;4.7841;-9.3379;-0.0336;-4.2005;-6.962;112.0;-40.69;-1.99;-6.84;129.04;27.91;-47.71;5.0;61.544;39.46884;-0.339858;6.8;NaN;7.67;3.0;32.16;19 / 33;16069;2021-10-20 19:31:24:879
6.3761;13.014;6.6731;6.6463;-5.8897;4.1659;2.753;4.7841;-9.3379;-2.7072;-1.8347;-5.1237;112.0;-40.69;-1.99;-6.84;129.04;27.91;-47.71;5.0;61.544;39.46884;-0.339858;6.8;NaN;7.67;3.0;32.16;19 / 33;16118;2021-10-20 19:31:24:928
41.268;23.618;13.7291;6.6463;-5.8897;4.1659;-18.2481;-11.637;-15.31;-4.2371;-1.6262;2.3026;112.0;-40.69;-3.54;-7.61;150.6;36.9;-57.92;5.0;61.544;39.46884;-0.339858;6.8;NaN;7.67;3.0;32.16;19 / 33;16168;2021-10-20 19:31:24:978
7.6451;0.653;3.4631;4.0749;-8.7293;1.8435;-12.8677;3.7443;-2.8029;-4.2371;-1.6262;2.3026;112.0;-40.69;-3.54;-7.61;150.6;36.9;-57.92;5.0;61.544;39.46884;-0.339858;6.8;NaN;7.67;3.0;32.16;19 / 33;16218;2021-10-20 19:31:25:028
7.6451;0.653;3.4631;-4.798;-7.7141;3.6919;-12.8677;3.7443;-2.8029;-2.5506;-1.1217;2.8696;112.0;-39.19;-8.16;-10.91;150.6;36.9;-57.92;5.0;62.818;39.46884;-0.339858;6.8;NaN;7.67;3.0;32.16;19 / 33;16268;2021-10-20 19:31:25:078
3.86;-6.261;-1.323;-8.418;-4.3;-2.6193;0.3116;13.3786;1.4313;9.1648;6.626;4.6582;125.0;-35.29;-14.81;-15.54;56.31;26.0;107.28;5.0;62.818;39.46884;-0.339858;6.8;NaN;7.67;3.0;32.16;19 / 33;16318;2021-10-20 19:31:25:128
0.275;-10.421;-10.3451;-6.019;1.5083;-7.5944;2.7921;17.339;5.0261;9.1648;6.626;4.6582;125.0;-35.29;-14.81;-15.54;56.31;26.0;107.28;5.0;62.818;39.46884;-0.339858;6.8;NaN;7.67;3.0;32.16;19 / 33;16368;2021-10-20 19:31:25:178
0.191;-10.041;-4.3339;-6.019;1.5083;-7.5944;6.4717;14.0436;-1.647;8.5591;-3.3066;2.6232;125.0;-32.29;-18.96;-17.76;210.07;-8.85;141.6;5.0;62.818;39.46884;-0.339858;6.8;NaN;7.67;3.0;32.16;19 / 33;16418;2021-10-20 19:31:25:228
10.577;-3.126;2.436;-7.0868;-6.6942;1.0822;-4.6947;3.6995;-10.2552;5.7982;-1.8778;1.7047;125.0;-33.06;-17.04;-16.86;210.07;-8.85;141.6;5.0;62.818;39.46884;-0.339858;6.8;NaN;7.67;3.0;32.16;19 / 33;16469;2021-10-20 19:31:25:279
32.5151;18.3371;12.485;3.9073;-8.6574;2.4517;-4.6947;3.6995;-10.2552;5.7982;-1.8778;1.7047;125.0;-33.06;-17.04;-16.86;210.07;-8.85;141.6;5.0;62.818;39.46884;-0.339858;6.8;NaN;7.67;3.0;32.16;19 / 33;16518;2021-10-20 19:31:25:328
21.387;15.956;10.22;4.8028;-7.9248;3.213;-36.0564;-27.8423;-23.3098;3.7085;5.184;-2.8721;125.0;-36.36;-9.71;-14.46;169.21;61.95;-57.89;5.0;62.818;39.46884;-0.339858;6.8;NaN;7.67;3.0;32.16;19 / 33;16568;2021-10-20 19:31:25:378
21.387;15.956;10.22;8.667;4.4724;1.0199;-36.0564;-27.8423;-23.3098;3.7085;5.184;-2.8721;125.0;-36.36;-9.71;-14.46;169.21;61.95;-57.89;5.0;60.19;39.46884;-0.339858;6.8;NaN;7.67;3.0;32.16;19 / 33;16618;2021-10-20 19:31:25:428
-4.641;5.103;-2.9171;8.5473;0.8715;-4.7262;11.8463;-4.644;-4.936;-8.1594;0.8766;-1.4575;157.0;-38.94;-3.19;-11.7;169.21;61.95;-57.89;5.0;60.19;39.46884;-0.339858;6.8;NaN;7.67;3.0;32.16;19 / 33;16669;2021-10-20 19:31:25:479
-1.438;6.51;-2.537;8.5473;0.8715;-4.7262;9.9469;-2.7836;-0.6045;-4.8385;-0.7316;-2.399;157.0;-40.2;-0.71;-9.54;273.43;-5.1;-118.94;5.0;60.19;39.46884;-0.339858;6.8;NaN;7.67;3.0;32.16;19 / 33;16718;2021-10-20 19:31:25:528
-8.621;3.959;-0.957;4.6495;7.8913;-3.5051;15.4353;2.3078;-2.2715;-4.8385;-0.7316;-2.399;157.0;-40.2;-0.71;-9.54;273.43;-5.1;-118.94;5.0;60.19;39.46884;-0.339858;6.8;NaN;7.67;3.0;32.16;19 / 33;16768;2021-10-20 19:31:25:578
5.7611;7.9631;7.3931;7.4172;-0.4549;6.4021;3.3838;2.5493;-8.5949;-0.6964;-3.4541;-6.3539;157.0;-40.8;-0.36;-7.8;94.64;2.66;-49.2;5.0;60.19;39.46884;-0.339858;6.8;NaN;7.67;3.0;32.16;19 / 33;16819;2021-10-20 19:31:25:629
28.3811;19.989;10.208;6.6846;-6.2201;3.5769;3.3838;2.5493;-8.5949;-3.6425;-1.4162;-1.7039;157.0;-40.44;-1.69;-6.41;94.64;2.66;-49.2;5.0;60.19;39.468876;-0.339825;6.4;NaN;7.74;2.7;30.12;18 / 33;16868;2021-10-20 19:31:25:678
28.3811;19.989;10.208;6.6846;-6.2201;3.5769;-25.7112;-10.7524;-12.1833;-3.6425;-1.4162;-1.7039;157.0;-40.44;-1.69;-6.41;94.64;2.66;-49.2;5.0;63.275;39.468876;-0.339825;6.4;NaN;7.74;2.7;30.12;18 / 33;16918;2021-10-20 19:31:25:728
20.195;6.563;7.37;2.8587;-8.8107;3.2178;-16.3646;2.4797;-7.4792;-3.5551;-1.1858;2.5171;121.0;-39.96;-4.14;-7.74;141.58;63.96;-41.62;5.0;63.275;39.468876;-0.339825;6.4;NaN;7.74;2.7;30.12;18 / 33;16969;2021-10-20 19:31:25:779
5.864;-4.2289;-0.8111;-5.703;-7.9104;-1.087;-16.3646;2.4797;-7.4792;-3.5551;-1.1858;2.5171;121.0;-39.96;-4.14;-7.74;141.58;63.96;-41.62;5.0;63.275;39.468876;-0.339825;6.4;NaN;7.74;2.7;30.12;18 / 33;17019;2021-10-20 19:31:25:829
3.027;-6.69;-6.192;-6.8331;-3.0885;-6.3207;-0.2417;12.6366;4.8023;-2.7265;-1.1348;2.6626;121.0;-37.86;-8.21;-13.44;11.69;53.72;100.79;5.0;63.275;39.468876;-0.339825;6.4;NaN;7.74;2.7;30.12;18 / 33;17069;2021-10-20 19:31:25:879
3.027;-6.69;-6.192;-6.8331;-3.0885;-6.3207;7.4659;13.7036;9.2642;10.0371;-1.6589;2.4452;121.0;-34.5;-11.34;-19.01;11.69;53.72;100.79;5.0;63.275;39.468876;-0.339825;6.4;NaN;7.74;2.7;30.12;18 / 33;17119;2021-10-20 19:31:25:929
-2.235;-7.774;-5.6201;-7.7381;2.2266;-5.5929;9.157;12.4338;0.4707;10.0371;-1.6589;2.4452;121.0;-34.5;-11.34;-19.01;11.69;53.72;100.79;5.0;63.275;39.468876;-0.339825;6.4;NaN;7.74;2.7;30.12;18 / 33;17169;2021-10-20 19:31:25:979
11.4221;0.0671;-1.7591;0.0479;-9.6917;-1.494;9.157;12.4338;0.4707;5.8086;-3.4636;1.3409;121.0;-34.26;-10.61;-20.51;297.44;81.23;-178.16;5.0;63.096;39.468876;-0.339825;6.4;NaN;7.74;2.7;30.12;18 / 33;17218;2021-10-20 19:31:26:028
26.478;11.13;21.375;3.0502;-7.2544;5.8562;-8.1758;-0.9736;-7.2693;3.8655;4.7238;-1.0395;121.0;-36.66;-6.49;-17.51;139.3;47.69;-27.51;5.0;63.096;39.468876;-0.339825;6.4;NaN;7.74;2.7;30.12;18 / 33;17268;2021-10-20 19:31:26:078
26.057;15.017;6.8861;4.774;-8.2839;2.1883;-30.9941;-18.6942;-31.7827;3.8655;4.7238;-1.0395;159.0;-36.66;-6.49;-17.51;139.3;47.69;-27.51;5.0;63.096;39.468876;-0.339825;6.4;NaN;7.74;2.7;30.12;18 / 33;17319;2021-10-20 19:31:26:129
-2.786;5.519;-4.902;6.8666;3.4572;-6.0861;10.3951;-3.8327;1.4785;-5.1063;2.9558;-1.0193;159.0;-38.29;-1.86;-13.61;174.95;57.63;-65.37;5.0;63.096;39.468876;-0.339825;6.4;NaN;7.74;2.7;30.12;18 / 33;17368;2021-10-20 19:31:26:178
-2.786;5.519;-4.902;6.8666;3.4572;-6.0861;10.3951;-3.8327;1.4785;-5.1063;2.9558;-1.0193;159.0;-38.29;-1.86;-13.61;174.95;57.63;-65.37;5.0;63.096;39.468876;-0.339825;6.4;NaN;7.74;2.7;30.12;18 / 33;17419;2021-10-20 19:31:26:229
-0.5359;6.618;-1.943;7.9583;2.6049;-5.0996;9.0825;-2.2724;-0.1316;-4.2398;0.4854;-1.36;159.0;-38.89;0.06;-12.41;282.12;-20.65;-131.55;5.0;63.096;39.468876;-0.339825;6.4;NaN;7.74;2.7;30.12;18 / 33;17469;2021-10-20 19:31:26:279
-3.918;5.694;-3.9079;7.92;5.7796;0.1293;9.1441;2.5989;-3.6495;0.2204;-3.4033;-4.6692;159.0;-39.9;0.24;-11.34;282.12;-20.65;-131.55;5.0;63.096;39.468876;-0.339825;6.4;NaN;7.74;2.7;30.12;18 / 33;17519;2021-10-20 19:31:26:329
1.9721;3.777;6.122;6.8043;-5.0661;4.9225;9.1441;2.5989;-3.6495;0.2204;-3.4033;-4.6692;159.0;-39.9;0.24;-11.34;282.12;-20.65;-131.55;5.0;64.544;39.468876;-0.339825;6.4;NaN;7.74;2.7;30.12;18 / 33;17569;2021-10-20 19:31:26:379
6.752;16.887;6.513;6.8043;-5.0661;4.9225;-1.3837;1.0649;-8.7025;-2.0673;-1.3564;-3.0018;159.0;-40.26;-0.84;-9.71;143.35;31.1;-54.12;5.0;64.544;39.468876;-0.339825;6.4;NaN;7.74;2.7;30.12;18 / 33;17619;2021-10-20 19:31:26:429
37.4141;16.772;13.404;4.3766;-7.3454;4.798;-34.7111;-13.6484;-26.1422;-4.513;-0.7869;1.086;136.0;-40.26;-0.84;-9.71;143.35;31.1;-54.12;5.0;64.544;39.468876;-0.339825;6.4;NaN;7.74;2.7;30.12;18 / 33;17668;2021-10-20 19:31:26:478
7.362;-1.737;1.244;2.7916;-9.2512;-1.6759;-34.7111;-13.6484;-26.1422;-4.513;-0.7869;1.086;136.0;-39.79;-4.09;-9.84;141.21;48.52;-42.37;5.0;64.544;39.468876;-0.339825;6.4;NaN;7.74;2.7;30.12;18 / 33;17718;2021-10-20 19:31:26:528
7.362;-1.737;1.244;-9.481;-2.3367;0.9146;-2.4969;10.2111;-0.4417;-2.3774;-0.5072;2.1508;136.0;-38.1;-9.66;-12.71;141.21;48.52;-42.37;5.0;64.544;39.468876;-0.339825;6.4;NaN;7.74;2.7;30.12;18 / 33;17768;2021-10-20 19:31:26:578
1.886;-8.916;-2.802;-9.481;-2.3367;0.9146;4.2497;16.3513;4.5796;10.7784;4.381;3.5888;136.0;-38.1;-9.66;-12.71;141.21;48.52;-42.37;5.0;64.544;39.468876;-0.339825;6.4;NaN;7.74;2.7;30.12;18 / 33;17818;2021-10-20 19:31:26:628
-3.3461;-10.962;-15.417;-5.5976;1.7047;-7.8721;4.2497;16.3513;4.5796;10.7784;4.381;3.5888;136.0;-34.14;-16.26;-16.8;111.29;13.78;84.49;5.0;61.582;39.468918;-0.339803;5.7;NaN;7.95;2.6;24.64;18 / 33;17869;2021-10-20 19:31:26:679
2.5061;-9.536;-0.629;-9.4667;-2.4756;-0.6225;9.7545;16.8292;6.0256;8.2213;-4.3913;1.8363;136.0;-32.4;-18.49;-18.96;111.29;13.78;84.49;5.0;61.582;39.468918;-0.339803;5.7;NaN;7.95;2.6;24.64;18 / 33;17919;2021-10-20 19:31:26:729
16.35;2.408;0.342;1.4222;-9.7013;0.2011;-3.4824;5.8002;-2.4069;8.2213;-4.3913;1.8363;175.0;-32.4;-18.49;-18.96;111.29;13.78;84.49;5.0;61.582;39.468918;-0.339803;5.7;NaN;7.95;2.6;24.64;18 / 33;17968;2021-10-20 19:31:26:778
50.5121;33.4601;19.7591;5.1475;-7.7716;3.0406;-49.0596;-30.0332;-39.172;5.2683;-1.4759;0.3546;175.0;-35.94;-13.14;-16.91;196.61;81.58;-81.95;5.0;61.582;39.468918;-0.339803;5.7;NaN;7.95;2.6;24.64;18 / 33;18018;2021-10-20 19:31:26:828
50.5121;33.4601;19.7591;5.1475;-7.7716;3.0406;-49.0596;-30.0332;-39.172;0.551;5.3014;-2.6797;175.0;-39.79;-4.74;-13.31;165.58;52.43;-59.43;5.0;61.582;39.468918;-0.339803;5.7;NaN;7.95;2.6;24.64;18 / 33;18069;2021-10-20 19:31:26:879
-5.115;5.6051;-1.7921;7.0533;6.4356;-2.2458;1.0639;-11.5067;-5.0013;0.551;5.3014;-2.6797;175.0;-39.79;-4.74;-13.31;165.58;52.43;-59.43;5.0;61.582;39.468918;-0.339803;5.7;NaN;7.95;2.6;24.64;18 / 33;18118;2021-10-20 19:31:26:928
-6.225;2.8241;-1.3931;3.9648;8.7532;-1.9537;14.7367;0.6069;-2.071;-7.2858;0.5385;-1.5837;175.0;-40.86;-2.59;-12.06;312.79;-63.21;-116.23;5.0;61.582;39.468918;-0.339803;5.7;NaN;7.95;2.6;24.64;18 / 33;18168;2021-10-20 19:31:26:978
-2.7349;4.746;-3.753;7.015;4.0318;-5.545;9.4273;1.4059;0.0761;-0.8557;-3.5826;-6.9552;175.0;-40.86;-2.59;-12.06;312.79;-63.21;-116.23;5.0;64.829;39.468918;-0.339803;5.7;NaN;7.95;2.6;24.64;18 / 33;18219;2021-10-20 19:31:27:029
-1.1959;3.305;1.6991;8.3127;2.988;4.2617;9.4273;1.4059;0.0761;-0.8557;-3.5826;-6.9552;175.0;-41.4;-3.11;-10.61;282.71;-24.27;-128.32;5.0;64.829;39.468918;-0.339803;5.7;NaN;7.95;2.6;24.64;18 / 33;18269;2021-10-20 19:31:27:079
0.945;13.011;4.2461;9.3039;-0.6704;3.0311;4.2563;4.7382;-6.3992;-1.0407;-2.4592;-4.2984;141.0;-42.84;-2.21;-9.24;46.53;-17.74;-62.86;5.0;64.829;39.468918;-0.339803;5.7;NaN;7.95;2.6;24.64;18 / 33;18319;2021-10-20 19:31:27:129
0.945;13.011;4.2461;9.3039;-0.6704;3.0311;-5.8121;-12.5724;-16.454;-1.0407;-2.4592;-4.2984;141.0;-42.84;-2.21;-9.24;46.53;-17.74;-62.86;5.0;64.829;39.468918;-0.339803;5.7;NaN;7.95;2.6;24.64;18 / 33;18369;2021-10-20 19:31:27:179
47.097;27.309;37.158;4.0654;-7.0054;5.5306;-36.4922;-5.873;-21.5679;-4.477;-1.2033;1.1892;141.0;-42.79;-3.06;-10.31;46.53;-17.74;-62.86;5.0;64.829;39.468918;-0.339803;5.7;NaN;7.95;2.6;24.64;18 / 33;18419;2021-10-20 19:31:27:229
8.313;-4.32;-0.9641;-8.2121;-5.2289;-1.1971;-36.4922;-5.873;-21.5679;-3.8981;-1.284;2.5318;141.0;-39.9;-6.96;-15.41;29.06;32.21;98.29;5.0;64.829;39.468918;-0.339803;5.7;NaN;7.95;2.6;24.64;18 / 33;18469;2021-10-20 19:31:27:279
6.4361;-8.552;-4.83;-8.2121;-5.2289;-1.1971;-1.3972;16.459;2.2185;-3.8981;-1.284;2.5318;141.0;-39.9;-6.96;-15.41;29.06;32.21;98.29;5.0;64.829;39.468918;-0.339803;5.7;NaN;7.95;2.6;24.64;18 / 33;18519;2021-10-20 19:31:27:329
3.8651;-9.912;-8.308;-7.2018;-2.806;-6.0334;-2.1121;17.0512;7.0787;-3.8801;-1.8019;2.878;141.0;-37.8;-9.96;-18.54;45.6;32.21;98.29;5.0;64.938;39.468918;-0.339803;5.7;NaN;7.95;2.6;24.64;18 / 33;18568;2021-10-20 19:31:27:378
3.8651;-9.912;-8.308;-7.2018;-2.806;-6.0334;-2.1121;17.0512;7.0787;-3.8801;-1.8019;2.878;141.0;-37.8;-9.96;-18.54;45.6;32.21;98.29;5.0;64.938;39.468918;-0.339803;5.7;NaN;7.95;2.6;24.64;18 / 33;18618;2021-10-20 19:31:27:428
-0.493;-10.105;-4.868;-8.1594;-5.2481;-1.4317;3.7278;14.7671;-3.8192;8.4021;-2.2682;1.3703;161.0;-34.44;-14.81;-22.5;65.24;32.35;99.95;5.0;64.938;39.468918;-0.339803;5.7;NaN;7.95;2.6;24.64;18 / 33;18668;2021-10-20 19:31:27:478
16.6541;8.088;7.0181;4.0031;-8.2504;3.4764;-5.5495;1.8224;-7.1962;8.4021;-2.2682;1.3703;161.0;-34.44;-14.81;-22.5;65.24;32.35;99.95;5.0;64.938;39.468918;-0.339803;5.7;NaN;7.95;2.6;24.64;18 / 33;18718;2021-10-20 19:31:27:528
43.497;24.5891;18.9551;4.0031;-8.2504;3.4764;-5.5495;1.8224;-7.1962;6.1523;4.9935;-1.3427;161.0;-36.3;-9.06;-19.74;65.24;32.35;99.95;5.0;64.938;39.468918;-0.339803;5.7;NaN;7.95;2.6;24.64;18 / 33;18768;2021-10-20 19:31:27:578
-1.074;3.8201;-1.938;4.798;-8.0158;2.9832;-35.9732;-24.5105;-25.244;-5.3562;3.2684;-1.1382;161.0;-38.64;-1.69;-16.44;168.72;54.82;-58.13;5.0;64.938;39.468918;-0.339803;5.7;NaN;7.95;2.6;24.64;18 / 33;18818;2021-10-20 19:31:27:628
-1.074;3.8201;-1.938;4.6926;5.454;-6.6607;9.6113;-1.6351;-2.3484;-5.3562;3.2684;-1.1382;161.0;-38.64;-1.69;-16.44;168.72;54.82;-58.13;5.0;64.938;39.468952;-0.339787;6.0;NaN;8.23;2.7;26.02;17 / 33;18868;2021-10-20 19:31:27:678
-1.158;3.5681;-2.877;8.0589;4.7693;-2.9161;10.7965;0.439;-0.8976;-4.302;1.0443;-1.1839;161.0;-39.66;0.71;-14.76;168.72;54.82;-58.13;5.0;63.482;39.468952;-0.339787;6.0;NaN;8.23;2.7;26.02;17 / 33;18918;2021-10-20 19:31:27:728
-7.781;2.8601;-3.408;3.1173;8.5186;-3.7302;14.1461;3.7567;-0.0595;1.019;-4.1794;-6.5058;165.0;-39.66;0.49;-13.01;301.99;-29.1;-109.89;5.0;63.482;39.468952;-0.339787;6.0;NaN;8.23;2.7;26.02;17 / 33;18968;2021-10-20 19:31:27:778
2.9681;7.0151;3.779;8.0972;-3.4141;4.3574;14.1461;3.7567;-0.0595;1.019;-4.1794;-6.5058;165.0;-39.66;0.49;-13.01;301.99;-29.1;-109.89;5.0;63.482;39.468952;-0.339787;6.0;NaN;8.23;2.7;26.02;17 / 33;19018;2021-10-20 19:31:27:828
9.6791;18.371;10.847;7.6902;-4.051;4.5394;-4.8327;-1.3274;-8.9328;-2.1935;-1.3383;-3.673;165.0;-40.2;0.49;-10.56;301.99;-29.1;-109.89;5.0;63.482;39.468952;-0.339787;6.0;NaN;8.23;2.7;26.02;17 / 33;19068;2021-10-20 19:31:27:878
9.6791;18.371;10.847;7.6902;-4.051;4.5394;-4.8327;-1.3274;-8.9328;-2.1935;-1.3383;-3.673;165.0;-39.96;-2.04;-9.71;147.15;24.4;-59.45;5.0;63.482;39.468952;-0.339787;6.0;NaN;8.23;2.7;26.02;17 / 33;19118;2021-10-20 19:31:27:928
46.697;19.6991;18.746;3.5769;-8.4755;3.3998;-32.9257;-13.8473;-25.2917;-4.2559;-0.8804;1.6407;165.0;-39.96;-2.04;-9.71;147.15;24.4;-59.45;5.0;63.482;39.468952;-0.339787;6.0;NaN;8.23;2.7;26.02;17 / 33;19169;2021-10-20 19:31:27:979
6.371;-7.2911;4.047;-6.8139;-5.952;3.7828;-12.6827;8.6271;1.8719;-3.0899;-0.9903;2.6506;165.0;-39.66;-6.71;-9.24;148.21;59.79;-46.45;5.0;63.987;39.468952;-0.339787;6.0;NaN;8.23;2.7;26.02;17 / 33;19218;2021-10-20 19:31:28:028
4.523;-10.95;-6.177;-6.3015;-1.2546;-7.4077;0.5587;18.7623;9.1907;-3.0899;-0.9903;2.6506;165.0;-37.69;-13.31;-11.04;148.21;59.79;-46.45;5.0;63.987;39.468952;-0.339787;6.0;NaN;8.23;2.7;26.02;17 / 33;19269;2021-10-20 19:31:28:079
-4.239;-10.895;-15.3259;-6.3015;-1.2546;-7.4077;0.5587;18.7623;9.1907;-10.4992;-6.355;-1.286;183.0;-37.69;-13.31;-11.04;148.21;59.79;-46.45;0.0;63.987;39.468952;-0.339787;6.0;NaN;8.23;2.7;26.02;17 / 33;19319;2021-10-20 19:31:28:129
2.709;-7.6331;0.627;-7.422;2.1691;-6.0286;8.9762;17.8913;5.8752;12.9067;0.9291;2.1007;183.0;-34.8;-17.94;-13.61;203.7;-12.78;129.09;0.0;63.987;39.468952;-0.339787;6.0;NaN;8.23;2.7;26.02;17 / 33;19369;2021-10-20 19:31:28:179
2.709;-7.6331;0.627;-2.1596;-9.4523;-1.4653;-6.4577;5.5281;-6.1141;12.9067;0.9291;2.1007;183.0;-34.8;-17.94;-13.61;203.7;-12.78;129.09;0.0;63.987;39.468952;-0.339787;6.0;NaN;8.23;2.7;26.02;17 / 33;19419;2021-10-20 19:31:28:229
18.186;2.592;-4.497;3.486;-7.1922;5.6838;-6.4577;5.5281;-6.1141;6.256;-0.8792;-0.289;183.0;-35.64;-15.71;-12.71;343.29;74.57;124.16;0.0;63.987;39.468952;-0.339787;6.0;NaN;8.23;2.7;26.02;17 / 33;19468;2021-10-20 19:31:28:278
40.4831;23.057;32.891;3.486;-7.1922;5.6838;-26.8465;-15.7071;-33.7148;6.256;-0.8792;-0.289;183.0;-38.04;-9.79;-10.5;135.48;47.17;-31.52;5.0;60.97;39.468952;-0.339787;6.0;NaN;8.23;2.7;26.02;17 / 33;19519;2021-10-20 19:31:28:329
-1.6871;7.092;5.6321;6.0908;-6.3877;4.2665;-6.6274;-16.5891;-14.7825;10.3296;4.8542;-3.2278;183.0;-38.04;-9.79;-10.5;135.48;47.17;-31.52;5.0;60.97;39.468952;-0.339787;6.0;NaN;8.23;2.7;26.02;17 / 33;19568;2021-10-20 19:31:28:378
-2.427;5.883;-2.5579;6.8618;6.2201;-3.2274;13.1182;-10.322;1.8215;13.4383;1.7546;0.4993;183.0;-39.49;-6.96;-8.4;301.85;-39.36;-115.19;5.0;60.97;39.468952;-0.339787;6.0;NaN;8.23;2.7;26.02;17 / 33;19618;2021-10-20 19:31:28:428
-4.626;5.045;-1.4621;8.7197;4.458;0.5076;13.1182;-10.322;1.8215;13.4383;1.7546;0.4993;185.0;-40.39;-6.36;-4.74;301.85;-39.36;-115.19;5.0;60.97;39.468952;-0.339787;6.0;NaN;8.23;2.7;26.02;17 / 33;19668;2021-10-20 19:31:28:478
-4.626;5.045;-1.4621;6.9097;6.9528;0.2155;11.6215;-8.3283;7.4819;10.1536;6.8581;-0.0344;185.0;-40.39;-6.36;-4.74;301.85;-39.36;-115.19;5.0;60.97;39.468952;-0.339787;6.0;NaN;8.23;2.7;26.02;17 / 33;19718;2021-10-20 19:31:28:528
-3.2119;4.461;2.58;6.9097;6.9528;0.2155;6.6576;-3.3681;6.5385;6.1529;5.8295;-1.2804;185.0;-41.7;-5.04;-1.26;0.68;-45.16;-88.21;5.0;60.97;39.468952;-0.339787;6.0;NaN;8.23;2.7;26.02;17 / 33;19768;2021-10-20 19:31:28:578
4.1741;9.675;4.748;8.2121;-3.5386;4.027;-3.3846;-5.6398;4.1658;6.1529;5.8295;-1.2804;185.0;-41.7;-5.04;-1.26;0.68;-45.16;-88.21;5.0;63.23;39.468952;-0.339787;6.0;NaN;8.23;2.7;26.02;17 / 33;19818;2021-10-20 19:31:28:628
40.919;28.0121;21.533;5.0805;-7.422;3.9025;-3.3846;-5.6398;4.1658;3.472;0.8025;2.1878;185.0;-43.2;-4.14;-0.66;0.68;-45.16;-88.21;5.0;63.23;39.468952;-0.339787;6.0;NaN;8.23;2.7;26.02;15 / 33;19869;2021-10-20 19:31:28:679
12.875;1.9361;0.945;1.4557;-9.6726;0.7039;-39.4494;-14.4553;-8.3371;3.472;0.8025;2.1878;185.0;-43.8;-4.69;-2.04;156.93;80.51;-64.19;5.0;63.23;39.468975;-0.339772;6.2;NaN;8.38;2.7;33.46;15 / 33;19919;2021-10-20 19:31:28:729
7.0391;-7.774;1.091;-7.2305;-6.5457;1.0151;-4.0111;9.9457;3.6341;2.0361;-1.4344;3.0352;183.0;-43.8;-4.69;-2.04;156.93;80.51;-64.19;5.0;63.23;39.468975;-0.339772;6.2;NaN;8.38;2.7;33.46;15 / 33;19969;2021-10-20 19:31:28:779
7.0391;-7.774;1.091;-7.2305;-6.5457;1.0151;-0.2842;14.6171;10.5784;-0.902;-2.9204;2.2755;183.0;-43.09;-8.76;-6.71;31.49;41.88;82.01;5.0;63.23;39.468975;-0.339772;6.2;NaN;8.38;2.7;33.46;15 / 33;20018;2021-10-20 19:31:28:828
-0.909;-10.2971;-12.537;-6.2153;0.5411;-7.5657;-0.2842;14.6171;10.5784;-0.902;-2.9204;2.2755;183.0;-41.34;-13.09;-11.81;31.49;41.88;82.01;5.0;63.23;39.468975;-0.339772;6.2;NaN;8.38;2.7;33.46;15 / 33;20068;2021-10-20 19:31:28:878
-0.373;-10.05;-3.3791;-9.2895;0.34;-3.1268;8.7015;10.6419;16.3643;-10.7434;0.1693;2.8846;183.0;-41.34;-13.09;-11.81;31.49;41.88;82.01;5.0;61.756;39.468975;-0.339772;6.2;NaN;8.38;2.7;33.46;15 / 33;20118;2021-10-20 19:31:28:928
8.8301;-2.767;0.2891;-2.9305;-9.3518;0.3017;-3.7144;-3.5584;5.1965;-7.3074;0.3212;2.2642;183.0;-41.34;-12.96;-13.01;26.93;72.51;84.12;5.0;61.756;39.468975;-0.339772;6.2;NaN;8.38;2.7;33.46;15 / 33;20168;2021-10-20 19:31:28:978
23.771;14.273;13.4921;4.5394;-7.5657;4.2904;-3.7144;-3.5584;5.1965;-7.3074;0.3212;2.2642;183.0;-41.34;-12.96;-13.01;26.93;72.51;84.12;5.0;61.756;39.468975;-0.339772;6.2;NaN;8.38;2.7;33.46;15 / 33;20218;2021-10-20 19:31:29:028
28.259;20.3771;10.551;5.4923;-7.6136;2.8395;-18.1519;-21.4654;-9.917;1.232;-0.6787;-4.8649;183.0;-43.2;-7.86;-11.1;148.4;50.46;-46.62;5.0;61.756;39.468975;-0.339772;6.2;NaN;8.38;2.7;33.46;15 / 33;20268;2021-10-20 19:31:29:078
28.259;20.3771;10.551;5.4923;-7.6136;2.8395;-3.8559;-16.5723;3.3789;1.232;-0.6787;-4.8649;201.0;-44.04;-1.14;-7.14;157.32;50.92;-62.66;5.0;61.756;39.468975;-0.339772;6.2;NaN;8.38;2.7;33.46;15 / 33;20318;2021-10-20 19:31:29:128
-2.999;6.1061;-4.397;7.3981;3.6344;-5.3151;9.3329;-6.7502;11.1554;8.9987;-0.7147;1.2585;201.0;-44.04;-1.14;-7.14;157.32;50.92;-62.66;5.0;61.756;39.468975;-0.339772;6.2;NaN;8.38;2.7;33.46;15 / 33;20368;2021-10-20 19:31:29:178
-2.544;5.972;-2.1919;7.9104;4.5586;-3.5817;9.3329;-6.7502;11.1554;7.3893;0.6384;0.1035;201.0;-43.99;2.04;-4.5;157.32;50.92;-62.66;5.0;61.756;39.468975;-0.339772;6.2;NaN;8.38;2.7;33.46;15 / 33;20418;2021-10-20 19:31:29:228
-5.263;3.458;-1.6729;4.4676;7.9583;3.5913;9.6298;-3.664;9.9444;7.3893;0.6384;0.1035;201.0;-43.99;2.04;-4.5;157.32;50.92;-62.66;5.0;62.719;39.468975;-0.339772;6.2;NaN;8.38;2.7;33.46;15 / 33;20468;2021-10-20 19:31:29:278
3.0971;5.5121;4.9541;4.4676;7.9583;3.5913;4.7373;4.6849;1.403;5.9434;2.1889;-5.394;201.0;-44.29;2.21;-3.6;38.24;-54.24;-51.21;5.0;62.719;39.468975;-0.339772;6.2;NaN;8.38;2.7;33.46;15 / 33;20519;2021-10-20 19:31:29:329
11.771;19.668;11.4551;8.0541;-4.8459;2.8012;4.7373;4.6849;1.403;1.7768;1.4839;-0.9383;201.0;-44.46;1.09;-3.3;38.24;-54.24;-51.21;5.0;62.719;39.468975;-0.339772;6.2;NaN;8.38;2.7;33.46;15 / 33;20569;2021-10-20 19:31:29:379
35.358;13.701;4.964;4.1372;-8.0493;3.7733;-10.4914;-11.1115;-6.8362;1.7768;1.4839;-0.9383;201.0;-44.46;1.09;-3.3;38.24;-54.24;-51.21;5.0;62.719;39.468975;-0.339772;6.2;NaN;8.38;2.7;33.46;15 / 33;20618;2021-10-20 19:31:29:428
35.358;13.701;4.964;-2.2218;-8.4994;-4.367;-32.7631;-5.4266;-0.3484;0.0;-0.8063;2.8098;97.0;-44.16;-1.01;-4.91;139.16;55.18;-47.63;5.0;62.719;39.468975;-0.339772;6.2;NaN;8.38;2.7;33.46;15 / 33;20668;2021-10-20 19:31:29:478
4.701;-5.048;1.9811;-2.2218;-8.4994;-4.367;-32.7631;-5.4266;-0.3484;0.0;-0.8063;2.8098;97.0;-43.14;-4.39;-8.34;301.27;60.04;153.03;5.0;62.719;39.468975;-0.339772;6.2;NaN;8.38;2.7;33.46;15 / 33;20718;2021-10-20 19:31:29:528
2.166;-9.28;-4.8251;-8.5138;-4.8602;0.3112;-1.4334;14.3192;-0.2926;-0.5097;-1.3034;2.7346;97.0;-43.14;-4.39;-8.34;301.27;60.04;153.03;5.0;60.572;39.468975;-0.339772;6.2;NaN;8.38;2.7;33.46;15 / 33;20768;2021-10-20 19:31:29:578
-3.8749;-9.993;-9.72;-6.7756;2.624;-6.5888;8.9414;17.4588;11.5558;14.2566;-0.5393;1.1318;97.0;-41.34;-8.64;-11.64;47.72;29.7;87.91;5.0;60.572;39.468975;-0.339772;6.2;NaN;8.38;2.7;33.46;15 / 33;20818;2021-10-20 19:31:29:628
3.468;-7.08;0.165;-8.8059;-4.3096;0.2059;8.9414;17.4588;11.5558;14.2566;-0.5393;1.1318;97.0;-41.34;-8.64;-11.64;47.72;29.7;87.91;5.0;60.572;39.469;-0.339762;6.4;NaN;8.42;2.7;28.4;15 / 33;20868;2021-10-20 19:31:29:678
13.32;3.999;1.2131;2.806;-9.3565;0.8523;1.9908;11.3742;-7.0865;8.9677;-3.6255;0.3887;97.0;-40.09;-9.84;-12.96;58.74;26.07;88.66;5.0;60.572;39.469;-0.339762;6.4;NaN;8.42;2.7;28.4;15 / 33;20919;2021-10-20 19:31:29:729
13.32;3.999;1.2131;2.806;-9.3565;0.8523;-8.806;-3.0928;-9.8785;7.2618;3.1992;-1.9207;183.0;-40.39;-5.89;-12.0;58.74;26.07;88.66;5.0;60.572;39.469;-0.339762;6.4;NaN;8.42;2.7;28.4;15 / 33;20968;2021-10-20 19:31:29:778
42.144;24.147;14.735;4.6639;-8.1451;2.8443;-20.1398;-15.3157;-11.4739;7.2618;3.1992;-1.9207;183.0;-40.39;-5.89;-12.0;58.74;26.07;88.66;5.0;60.572;39.469;-0.339762;6.4;NaN;8.42;2.7;28.4;15 / 33;21019;2021-10-20 19:31:29:829
1.4861;5.261;-5.871;6.4308;-1.8148;-7.1778;-20.1398;-15.3157;-11.4739;-6.5209;2.9439;0.3449;183.0;-41.46;2.59;-6.9;153.2;56.15;-58.62;5.0;61.671;39.469;-0.339762;6.4;NaN;8.42;2.7;28.4;15 / 33;21069;2021-10-20 19:31:29:879
2.175;6.4601;-2.508;9.347;-1.4317;-2.6049;7.5558;-1.6186;1.6717;-3.8452;1.152;-0.4038;183.0;-41.64;10.01;-0.96;278.51;10.66;-138.14;5.0;61.671;39.469;-0.339762;6.4;NaN;8.42;2.7;28.4;15 / 33;21119;2021-10-20 19:31:29:929
-5.1;5.972;-2.3209;9.347;-1.4317;-2.6049;6.7267;-2.8574;-1.6797;-3.8452;1.152;-0.4038;183.0;-41.64;10.01;-0.96;278.51;10.66;-138.14;5.0;61.671;39.469;-0.339762;6.4;NaN;8.42;2.7;28.4;15 / 33;21168;2021-10-20 19:31:29:978
-0.375;5.9981;5.7371;6.8953;6.9145;0.9433;9.1549;0.9562;-8.8222;-0.6132;-2.6931;-3.8459;183.0;-41.29;11.89;2.34;278.51;10.66;-138.14;5.0;61.671;39.469;-0.339762;6.4;NaN;8.42;2.7;28.4;15 / 33;21218;2021-10-20 19:31:30:028
-0.375;5.9981;5.7371;7.6231;-3.3615;5.1763;9.1549;0.9562;-8.8222;-0.6132;-2.6931;-3.8459;183.0;-41.89;11.46;3.36;92.19;20.04;-55.82;5.0;61.671;39.469;-0.339762;6.4;NaN;8.42;2.7;28.4;15 / 33;21268;2021-10-20 19:31:30:078
12.513;13.7801;3.9731;5.3391;-7.3646;3.6583;-8.8136;-5.1194;-6.742;-3.2673;-0.4685;-2.8251;117.0;-41.89;11.46;3.36;92.19;20.04;-55.82;5.0;61.671;39.469;-0.339762;6.4;NaN;8.42;2.7;28.4;15 / 33;21319;2021-10-20 19:31:30:129
38.772;18.1481;13.244;5.3391;-7.3646;3.6583;-34.6881;-9.2774;-14.2268;-3.3458;-0.1651;1.7542;117.0;-43.14;9.49;0.06;130.42;48.69;-55.58;5.0;61.671;39.469;-0.339762;6.4;NaN;8.42;2.7;28.4;15 / 33;21369;2021-10-20 19:31:30:179
11.1731;-0.782;0.107;2.1835;-9.5385;-0.6129;-34.6881;-9.2774;-14.2268;-3.3458;-0.1651;1.7542;117.0;-43.14;9.49;0.06;130.42;48.69;-55.58;5.0;65.006;39.469;-0.339762;6.4;NaN;8.42;2.7;28.4;15 / 33;21418;2021-10-20 19:31:30:228
4.205;-7.5949;0.3851;-7.4747;-6.0765;1.8435;-1.1363;12.7256;-1.3521;-1.8055;-0.2281;2.5552;117.0;-43.69;3.96;-6.9;130.42;48.69;-55.58;5.0;65.006;39.469;-0.339762;6.4;NaN;8.42;2.7;28.4;15 / 33;21468;2021-10-20 19:31:30:278
-2.9749;-8.4251;-12.676;-6.6463;-0.1006;-7.2065;7.3612;14.5761;8.7882;11.1849;2.4126;2.8387;117.0;-42.19;-1.91;-13.5;265.71;0.59;137.32;5.0;65.006;39.469;-0.339762;6.4;NaN;8.42;2.7;28.4;15 / 33;21518;2021-10-20 19:31:30:328
1.163;-8.289;-0.0431;-8.5569;1.7095;-4.4724;7.3612;14.5761;8.7882;11.1849;2.4126;2.8387;117.0;-42.19;-1.91;-13.5;265.71;0.59;137.32;5.0;65.006;39.469;-0.339762;6.4;NaN;8.42;2.7;28.4;15 / 33;21569;2021-10-20 19:31:30:379
1.163;-8.289;-0.0431;-4.5011;-8.5904;1.4748;5.8131;11.5191;-6.0497;8.0963;-4.2831;1.147;117.0;-40.5;-4.14;-16.14;265.71;0.59;137.32;5.0;65.006;39.469;-0.339762;6.4;NaN;8.42;2.7;28.4;15 / 33;21618;2021-10-20 19:31:30:428
12.14;-0.342;1.361;-4.5011;-8.5904;1.4748;-6.4094;0.4079;-9.3093;8.0963;-4.2831;1.147;181.0;-40.5;-4.14;-16.14;265.71;0.59;137.32;5.0;65.006;39.469;-0.339762;6.4;NaN;8.42;2.7;28.4;15 / 33;21668;2021-10-20 19:31:30:478
33.3551;17.133;9.62;3.5386;-8.9591;1.8387;-6.4094;0.4079;-9.3093;5.8501;-0.3613;-0.2038;181.0;-40.86;-1.86;-13.56;41.63;61.13;71.86;5.0;59.983;39.469;-0.339762;6.4;NaN;8.42;2.7;28.4;15 / 33;21718;2021-10-20 19:31:30:528
14.3921;11.099;5.373;4.5729;-8.3749;2.2553;-38.7574;-25.4465;-19.4367;-5.4664;3.707;-0.8012;181.0;-41.59;3.36;-7.44;159.7;58.67;-63.75;5.0;59.983;39.469;-0.339762;6.4;NaN;8.42;2.7;28.4;15 / 33;21768;2021-10-20 19:31:30:578
-3.4849;5.009;-2.2159;6.5218;7.2975;0.6129;13.5625;-2.4582;-4.7779;-5.4664;3.707;-0.8012;181.0;-41.59;3.36;-7.44;159.7;58.67;-63.75;5.0;59.983;39.469;-0.339762;6.4;NaN;8.42;2.7;28.4;15 / 33;21819;2021-10-20 19:31:30:629
-3.6949;7.034;-2.367;9.5289;1.6041;-1.6951;12.1834;-3.2081;-0.7191;-5.8523;1.6836;-0.9687;181.0;-41.34;5.89;-3.11;159.7;58.67;-63.75;5.0;59.983;39.46904;-0.339755;6.4;NaN;8.26;2.7;25.99;16 / 34;21868;2021-10-20 19:31:30:678
-3.6949;7.034;-2.367;9.5289;1.6041;-1.6951;12.1834;-3.2081;-0.7191;-3.3345;-0.3697;-2.9604;181.0;-41.34;6.19;-1.44;326.83;-9.41;-100.09;5.0;59.983;39.46904;-0.339755;6.4;NaN;8.26;2.7;25.99;16 / 34;21918;2021-10-20 19:31:30:728
-5.2729;5.3441;0.009;6.9815;6.8905;0.0;11.8411;1.1587;-3.2838;-3.3345;-0.3697;-2.9604;93.0;-41.34;6.19;-1.44;326.83;-9.41;-100.09;5.0;59.983;39.46904;-0.339755;6.4;NaN;8.26;2.7;25.99;16 / 34;21968;2021-10-20 19:31:30:778
7.518;11.652;5.751;7.6136;-4.9081;3.7589;11.8411;1.1587;-3.2838;-1.6101;-1.737;-4.6907;93.0;-41.59;6.66;-0.11;326.83;-9.41;-100.09;5.0;59.983;39.46904;-0.339755;6.4;NaN;8.26;2.7;25.99;16 / 34;22019;2021-10-20 19:31:30:829
35.8751;24.8;12.1451;5.3726;-7.7716;2.6288;-7.1392;-6.0281;-7.3147;-3.1677;-0.2901;0.884;93.0;-41.94;4.56;-1.2;147.15;52.42;-63.93;5.0;65.058;39.46904;-0.339755;6.4;NaN;8.26;2.7;25.99;16 / 34;22069;2021-10-20 19:31:30:879
14.495;-0.078;4.368;-0.0431;-9.3901;2.8252;-34.2475;-10.6543;-10.9123;-3.1677;-0.2901;0.884;93.0;-41.94;4.56;-1.2;147.15;52.42;-63.93;5.0;65.058;39.46904;-0.339755;6.4;NaN;8.26;2.7;25.99;16 / 34;22119;2021-10-20 19:31:30:929
5.708;-6.7571;0.083;-7.4939;-6.3303;0.091;-2.8874;11.9961;-2.086;-2.3595;-0.3547;2.3767;93.0;-41.7;0.19;-3.9;147.15;52.42;-63.93;5.0;65.058;39.46904;-0.339755;6.4;NaN;8.26;2.7;25.99;16 / 34;22169;2021-10-20 19:31:30:979
5.708;-6.7571;0.083;-7.4939;-6.3303;0.091;-2.8874;11.9961;-2.086;-2.3595;-0.3547;2.3767;93.0;-40.39;-6.66;-9.96;27.22;40.19;89.3;5.0;65.058;39.46904;-0.339755;6.4;NaN;8.26;2.7;25.99;16 / 34;22219;2021-10-20 19:31:31:029
1.89;-8.499;-7.707;-7.1682;-1.5897;-6.5027;3.5039;15.1962;5.1994;-5.2937;-2.1955;2.9505;93.0;-40.39;-6.66;-9.96;27.22;40.19;89.3;5.0;65.058;39.46904;-0.339755;6.4;NaN;8.26;2.7;25.99;16 / 34;22269;2021-10-20 19:31:31:079
-1.8019;-9.342;-9.268;-6.8953;1.3312;-6.8474;10.2093;15.4862;10.2062;9.1982;-3.6981;0.4395;105.0;-37.99;-11.16;-15.84;27.22;40.19;89.3;5.0;65.058;39.46904;-0.339755;6.4;NaN;8.26;2.7;25.99;16 / 34;22318;2021-10-20 19:31:31:128
10.668;-4.215;3.923;-0.0239;-9.256;3.2465;-4.8444;6.025;-11.6035;9.1982;-3.6981;0.4395;105.0;-37.44;-10.74;-17.16;221.05;-7.8;134.8;5.0;63.062;39.46904;-0.339755;6.4;NaN;8.26;2.7;25.99;16 / 34;22369;2021-10-20 19:31:31:179
26.885;11.6681;10.1681;-0.0239;-9.256;3.2465;-4.8444;6.025;-11.6035;6.2744;-1.1462;0.1601;105.0;-37.44;-10.74;-17.16;221.05;-7.8;134.8;5.0;63.062;39.46904;-0.339755;6.4;NaN;8.26;2.7;25.99;16 / 34;22418;2021-10-20 19:31:31:228
34.104;17.3801;6.5531;4.5346;-8.6718;0.6416;-15.373;-12.8481;-8.3633;0.6354;4.7369;-1.8554;105.0;-39.0;-5.64;-15.11;112.08;70.67;0.42;5.0;63.062;39.46904;-0.339755;6.4;NaN;8.26;2.7;25.99;16 / 34;22469;2021-10-20 19:31:31:279
34.104;17.3801;6.5531;4.2808;-5.2385;7.1012;-23.6333;-14.8275;-20.0285;0.6354;4.7369;-1.8554;105.0;-39.0;-5.64;-15.11;112.08;70.67;0.42;5.0;63.062;39.46904;-0.339755;6.4;NaN;8.26;2.7;25.99;16 / 34;22519;2021-10-20 19:31:31:329
-3.9709;6.893;12.075;4.2808;-5.2385;7.1012;-23.6333;-14.8275;-20.0285;-7.2355;1.2968;-1.1664;105.0;-41.46;0.11;-7.44;112.08;70.67;0.42;5.0;63.062;39.46904;-0.339755;6.4;NaN;8.26;2.7;25.99;16 / 34;22569;2021-10-20 19:31:31:379
-5.4551;9.785;-3.3979;6.9815;6.8714;0.5076;17.1782;-5.1496;-10.828;-7.2355;1.2968;-1.1664;105.0;-42.24;1.99;-1.74;1.95;-44.47;-85.84;5.0;63.062;39.46904;-0.339755;6.4;NaN;8.26;2.7;25.99;16 / 34;22619;2021-10-20 19:31:31:429
-4.2941;8.2001;-4.7599;7.7285;4.0462;-4.4819;10.8514;-4.7004;3.8188;-5.5407;-0.3872;-3.099;116.0;-42.24;1.99;-1.74;1.95;-44.47;-85.84;5.0;63.062;39.46904;-0.339755;6.4;NaN;8.26;2.7;25.99;16 / 34;22668;2021-10-20 19:31:31:478
0.236;6.893;8.1521;7.7285;4.0462;-4.4819;10.8514;-4.7004;3.8188;-0.7595;-2.3853;-5.4395;116.0;-42.49;2.46;-0.36;1.95;-44.47;-85.84;5.0;64.853;39.46904;-0.339755;6.4;NaN;8.26;2.7;25.99;16 / 34;22718;2021-10-20 19:31:31:528
11.8721;20.264;8.916;7.4172;-1.9872;6.1004;3.8519;1.7987;-10.1371;-0.7595;-2.3853;-5.4395;116.0;-42.49;2.46;-0.36;1.95;-44.47;-85.84;5.0;64.853;39.46904;-0.339755;6.4;NaN;8.26;2.7;25.99;16 / 34;22769;2021-10-20 19:31:31:579
36.117;19.2251;9.39;6.9528;-5.8706;3.6583;-9.1479;-10.9025;-10.0722;-2.6529;-1.0769;-1.2006;116.0;-43.09;0.36;-1.86;105.17;11.69;-50.56;5.0;64.853;39.46904;-0.339755;6.4;NaN;8.26;2.7;25.99;16 / 34;22818;2021-10-20 19:31:31:628
36.117;19.2251;9.39;3.371;-9.1075;1.3838;-24.6141;-1.2827;-3.4411;-2.6349;-1.1219;1.9434;116.0;-42.36;-5.21;-5.51;105.17;11.69;-50.56;5.0;64.853;39.469067;-0.33974;6.4;NaN;8.41;2.6;29.78;18 / 34;22869;2021-10-20 19:31:31:679
8.394;-8.9899;6.278;-8.102;-4.4053;3.3375;-24.6141;-1.2827;-3.4411;-2.6349;-1.1219;1.9434;116.0;-42.36;-5.21;-5.51;105.17;11.69;-50.56;5.0;64.853;39.469067;-0.33974;6.4;NaN;8.41;2.6;29.78;18 / 34;22918;2021-10-20 19:31:31:728
7.2911;-11.506;-5.292;-5.9233;-1.9585;-7.5657;-2.1069;19.1104;0.9745;-3.9787;-2.2315;2.3306;113.0;-39.0;-13.44;-10.91;83.84;26.69;67.61;5.0;64.853;39.469067;-0.33974;6.4;NaN;8.41;2.6;29.78;18 / 34;22968;2021-10-20 19:31:31:778
-3.9611;-11.9441;-16.659;-8.8346;0.6321;-4.2138;7.6968;16.7123;26.3791;-13.4148;0.3585;1.3251;113.0;-34.99;-20.34;-16.91;83.84;26.69;67.61;5.0;62.599;39.469067;-0.33974;6.4;NaN;8.41;2.6;29.78;18 / 34;23019;2021-10-20 19:31:31:829
8.1401;-5.5099;4.8371;-8.8346;0.6321;-4.2138;2.4047;8.6197;5.4994;-13.4148;0.3585;1.3251;113.0;-34.99;-20.34;-16.91;83.84;26.69;67.61;5.0;62.599;39.469067;-0.33974;6.4;NaN;8.41;2.6;29.78;18 / 34;23069;2021-10-20 19:31:31:879
20.9291;9.4811;3.911;-0.723;-9.6007;1.8627;2.4047;8.6197;5.4994;-9.3496;0.5363;1.5322;113.0;-34.2;-19.74;-18.71;103.65;78.24;21.21;5.0;62.599;39.469067;-0.33974;6.4;NaN;8.41;2.6;29.78;18 / 34;23118;2021-10-20 19:31:31:928
20.9291;9.4811;3.911;4.5729;-7.9823;3.3998;-15.6512;-15.6062;1.6468;-9.3496;0.5363;1.5322;113.0;-36.36;-13.09;-17.64;169.98;54.48;-53.37;5.0;62.599;39.469067;-0.33974;6.4;NaN;8.41;2.6;29.78;18 / 34;23169;2021-10-20 19:31:31:979
30.681;17.4281;15.036;5.794;-5.6072;5.5785;-23.3834;-22.722;-11.1599;-4.4672;0.1559;-6.1427;113.0;-36.36;-13.09;-17.64;169.98;54.48;-53.37;5.0;62.599;39.469067;-0.33974;6.4;NaN;8.41;2.6;29.78;18 / 34;23219;2021-10-20 19:31:32:029
0.821;9.021;5.613;5.794;-5.6072;5.5785;-23.3834;-22.722;-11.1599;-14.2582;-0.3901;-5.5392;113.0;-39.24;-6.19;-13.8;147.42;34.88;-46.09;5.0;62.599;39.469067;-0.33974;6.4;NaN;8.41;2.6;29.78;18 / 34;23269;2021-10-20 19:31:32:079
-2.508;8.085;-0.387;8.5569;4.4532;-1.7717;12.4115;-11.4554;-1.1534;-14.2582;-0.3901;-5.5392;131.0;-39.24;-6.19;-13.8;147.42;34.88;-46.09;5.0;59.885;39.469067;-0.33974;6.4;NaN;8.41;2.6;29.78;18 / 34;23319;2021-10-20 19:31:32:129
-7.4411;5.6681;-1.395;5.8802;7.7141;-1.4413;14.7218;-5.826;-2.9934;-10.335;-2.6705;-4.6651;131.0;-41.34;-1.31;-8.7;313.95;-27.0;-101.7;5.0;59.885;39.469067;-0.33974;6.4;NaN;8.41;2.6;29.78;18 / 34;23368;2021-10-20 19:31:32:178
-1.2439;5.0381;3.147;8.1355;2.0063;5.0949;11.4408;1.3887;-5.3349;-3.0931;-5.224;-6.105;131.0;-42.84;1.61;-4.61;335.52;-51.87;-103.77;5.0;59.885;39.469067;-0.33974;6.4;NaN;8.41;2.6;29.78;18 / 34;23418;2021-10-20 19:31:32:228
-1.2439;5.0381;3.147;8.1355;2.0063;5.0949;11.4408;1.3887;-5.3349;-3.0931;-5.224;-6.105;131.0;-42.84;1.61;-4.61;335.52;-51.87;-103.77;5.0;59.885;39.469067;-0.33974;6.4;NaN;8.41;2.6;29.78;18 / 34;23468;2021-10-20 19:31:32:278
7.685;14.979;7.1471;8.0349;-4.1228;3.8307;-1.6326;-0.7489;-9.6949;-4.0462;-3.2238;-2.5567;131.0;-43.2;2.29;-2.81;335.52;-51.87;-103.77;5.0;59.885;39.469067;-0.33974;6.4;NaN;8.41;2.6;29.78;18 / 34;23518;2021-10-20 19:31:32:328
48.258;28.077;18.4571;4.6831;-8.0493;3.0789;-45.6407;-18.7256;-19.8627;-4.0462;-3.2238;-2.5567;131.0;-42.19;0.96;-4.44;146.7;55.15;-56.68;5.0;59.885;39.469067;-0.33974;6.4;NaN;8.41;2.6;29.78;18 / 34;23568;2021-10-20 19:31:32:378
7.415;-3.667;4.0541;-3.9025;-7.8961;4.3096;-3.6951;12.7277;-3.5752;-4.4183;-2.2301;1.9815;131.0;-42.19;0.96;-4.44;146.7;55.15;-56.68;5.0;59.885;39.469067;-0.33974;6.4;NaN;8.41;2.6;29.78;18 / 34;23619;2021-10-20 19:31:32:429
6.0461;-10.9361;-0.39;-3.9025;-7.8961;4.3096;-3.6951;12.7277;-3.5752;-3.8155;-1.8149;2.2044;155.0;-40.99;-3.79;-10.01;69.57;53.64;42.16;5.0;65.495;39.469067;-0.33974;6.4;NaN;8.41;2.6;29.78;18 / 34;23669;2021-10-20 19:31:32:479
-6.714;-13.1599;-18.4211;-7.9344;-2.3655;-5.2577;1.9556;19.8857;10.6807;-3.8155;-1.8149;2.2044;155.0;-40.99;-3.79;-10.01;69.57;53.64;42.16;5.0;65.495;39.469067;-0.33974;6.4;NaN;8.41;2.6;29.78;18 / 34;23719;2021-10-20 19:31:32:529
-6.714;-13.1599;-18.4211;-7.0437;2.9688;-6.1435;1.9556;19.8857;10.6807;12.602;-2.0171;2.3515;155.0;-39.36;-9.49;-15.54;278.58;13.96;123.53;5.0;65.495;39.469067;-0.33974;6.4;NaN;8.41;2.6;29.78;18 / 34;23769;2021-10-20 19:31:32:579
5.469;-8.0801;2.0561;-4.8411;-8.4707;0.9577;6.5158;16.9957;-2.4163;7.584;-2.9771;1.3207;155.0;-38.89;-8.94;-16.31;41.99;59.78;78.81;5.0;65.495;39.469067;-0.33974;6.4;NaN;8.41;2.6;29.78;18 / 34;23819;2021-10-20 19:31:32:629
12.6641;-0.186;0.351;2.5379;-8.6431;3.8786;-5.1686;4.9647;-6.4138;7.584;-2.9771;1.3207;155.0;-38.89;-8.94;-16.31;41.99;59.78;78.81;5.0;65.495;39.46909;-0.339708;5.9;NaN;8.44;2.5;21.55;19 / 34;23869;2021-10-20 19:31:32:679
44.3231;23.9621;23.783;4.2665;-8.0302;3.6727;-37.4807;-25.5327;-30.63;6.6997;4.0502;-1.6463;155.0;-40.14;-2.64;-13.91;41.99;59.78;78.81;5.0;65.495;39.46909;-0.339708;5.9;NaN;8.44;2.5;21.55;19 / 34;23918;2021-10-20 19:31:32:728
10.256;9.0761;1.184;4.2665;-8.0302;3.6727;-37.4807;-25.5327;-30.63;6.6997;4.0502;-1.6463;184.0;-41.1;4.74;-8.4;142.39;54.97;-49.28;5.0;62.777;39.46909;-0.339708;5.9;NaN;8.44;2.5;21.55;19 / 34;23969;2021-10-20 19:31:32:779
-2.381;3.4511;-2.913;7.015;2.1644;-6.4979;9.6081;-2.3236;-0.4458;-7.7055;2.3851;-0.1899;184.0;-41.1;4.74;-8.4;142.39;54.97;-49.28;5.0;62.777;39.46909;-0.339708;5.9;NaN;8.44;2.5;21.55;19 / 34;24019;2021-10-20 19:31:32:829
-4.2;5.558;-5.038;8.6862;2.2027;-3.984;10.2186;-0.4348;0.3606;-4.6751;0.9871;-0.7936;184.0;-41.46;7.61;-5.21;305.96;-12.98;-114.64;5.0;62.777;39.46909;-0.339708;5.9;NaN;8.44;2.5;21.55;19 / 34;24069;2021-10-20 19:31:32:879
-4.2;5.558;-5.038;5.3486;6.1675;-5.4348;10.2186;-0.4348;0.3606;-4.6751;0.9871;-0.7936;184.0;-41.46;7.61;-5.21;305.96;-12.98;-114.64;5.0;62.777;39.46909;-0.339708;5.9;NaN;8.44;2.5;21.55;19 / 34;24118;2021-10-20 19:31:32:928
-5.991;6.017;0.675;9.6295;0.8619;1.6472;12.8998;1.2251;-0.4515;0.6995;-4.3857;-5.2224;184.0;-41.4;7.61;-4.56;303.99;-38.97;-135.46;5.0;62.777;39.46909;-0.339708;5.9;NaN;8.44;2.5;21.55;19 / 34;24168;2021-10-20 19:31:32:978
2.721;16.4651;4.425;9.6295;0.8619;1.6472;4.4268;-3.9911;-6.5457;-1.9299;-1.13;-3.6002;184.0;-41.1;8.29;-3.71;14.39;-5.04;-80.29;5.0;62.777;39.46909;-0.339708;5.9;NaN;8.44;2.5;21.55;19 / 34;24218;2021-10-20 19:31:33:028
35.8991;24.407;28.9361;5.4348;-3.9409;7.1491;-11.8669;-10.0911;-28.2529;-1.9299;-1.13;-3.6002;184.0;-41.1;8.29;-3.71;14.39;-5.04;-80.29;5.0;64.923;39.46909;-0.339708;5.9;NaN;8.44;2.5;21.55;19 / 34;24268;2021-10-20 19:31:33:078
22.385;-4.89;0.287;2.1117;-9.4619;1.4748;-45.8942;-1.6211;-8.2877;-4.1979;-0.0637;1.9533;108.0;-41.4;5.64;-4.86;14.39;-5.04;-80.29;5.0;64.923;39.46909;-0.339708;5.9;NaN;8.44;2.5;21.55;19 / 34;24318;2021-10-20 19:31:33:128
6.417;-9.536;3.161;-8.6;-3.8259;2.7438;-45.8942;-1.6211;-8.2877;-3.4724;-0.584;3.0338;108.0;-40.5;-3.36;-11.1;64.49;22.97;72.31;5.0;64.923;39.46909;-0.339708;5.9;NaN;8.44;2.5;21.55;19 / 34;24369;2021-10-20 19:31:33:179
6.417;-9.536;3.161;-7.8051;-3.395;-4.8698;-1.2253;17.7083;-1.6043;-3.4724;-0.584;3.0338;108.0;-40.5;-3.36;-11.1;64.49;22.97;72.31;5.0;64.923;39.46909;-0.339708;5.9;NaN;8.44;2.5;21.55;19 / 34;24419;2021-10-20 19:31:33:229
1.6151;-8.7461;-8.313;-7.0342;2.0925;-6.5074;4.67;16.2428;9.043;12.0699;5.2304;4.08;108.0;-37.39;-12.11;-17.76;303.99;20.26;121.96;5.0;64.923;39.46909;-0.339708;5.9;NaN;8.44;2.5;21.55;19 / 34;24468;2021-10-20 19:31:33:278
-1.3901;-9.191;-5.048;-7.0342;2.0925;-6.5074;8.4302;14.4807;0.7384;12.0699;5.2304;4.08;108.0;-37.39;-12.11;-17.76;303.99;20.26;121.96;5.0;64.923;39.46909;-0.339708;5.9;NaN;8.44;2.5;21.55;19 / 34;24519;2021-10-20 19:31:33:329
3.15;-6.759;-1.965;-9.2464;-2.6432;-1.9345;8.4302;14.4807;0.7384;8.8579;-3.5505;2.2186;108.0;-35.7;-13.61;-19.31;104.67;15.63;101.82;5.0;64.923;39.46909;-0.339708;5.9;NaN;8.44;2.5;21.55;19 / 34;24569;2021-10-20 19:31:33:379
17.6411;4.167;5.261;-2.3798;-9.4763;-0.8619;-0.9301;6.6016;-6.2774;5.6711;-1.691;1.0113;108.0;-37.09;-9.11;-17.94;6.63;75.05;109.91;5.0;57.85;39.46909;-0.339708;5.9;NaN;8.44;2.5;21.55;19 / 34;24618;2021-10-20 19:31:33:428
45.974;28.271;13.097;4.2904;-8.0302;3.6488;-30.2042;-17.4596;-27.5872;5.6711;-1.691;1.0113;186.0;-37.09;-9.11;-17.94;6.63;75.05;109.91;5.0;57.85;39.46909;-0.339708;5.9;NaN;8.44;2.5;21.55;19 / 34;24669;2021-10-20 19:31:33:479
45.974;28.271;13.097;9.1459;-3.4668;-0.7039;-30.2042;-17.4596;-27.5872;-0.6926;5.1333;-2.5068;186.0;-38.94;-0.06;-14.34;155.3;54.96;-49.62;5.0;57.85;39.46909;-0.339708;5.9;NaN;8.44;2.5;21.55;19 / 34;24719;2021-10-20 19:31:33:529
-5.2339;4.9181;-1.563;7.422;6.2058;-1.5993;5.421;-8.2632;-4.1317;-6.3449;1.4015;-1.6269;186.0;-39.96;5.21;-10.2;155.3;54.96;-49.62;5.0;57.85;39.46909;-0.339708;5.9;NaN;8.44;2.5;21.55;19 / 34;24768;2021-10-20 19:31:33:578
-2.187;4.6601;0.045;7.422;6.2058;-1.5993;10.914;-1.5415;-3.2286;-6.3449;1.4015;-1.6269;186.0;-39.96;5.21;-10.2;155.3;54.96;-49.62;5.0;57.85;39.46909;-0.339708;5.9;NaN;8.44;2.5;21.55;19 / 34;24819;2021-10-20 19:31:33:629
-4.614;3.485;-1.467;5.7269;7.5896;-2.4038;10.914;-1.5415;-3.2286;-2.904;-1.6852;-4.5115;186.0;-40.56;6.24;-6.84;324.21;-50.7;-112.77;5.0;57.85;39.469097;-0.339685;5.7;NaN;8.19;2.5;35.45;19 / 34;24869;2021-10-20 19:31:33:679
-1.943;3.585;5.316;5.2481;2.8347;7.7859;11.1115;3.7531;-3.7545;-2.904;-1.6852;-4.5115;186.0;-40.56;6.24;-6.84;324.21;-50.7;-112.77;5.0;62.37;39.469097;-0.339685;5.7;NaN;8.19;2.5;35.45;19 / 34;24919;2021-10-20 19:31:33:729
7.851;9.11;3.279;5.2481;2.8347;7.7859;0.3676;4.5318;-3.6616;-2.6267;-1.3625;-5.8711;92.0;-40.5;6.84;-5.34;324.21;-50.7;-112.77;5.0;62.37;39.469097;-0.339685;5.7;NaN;8.19;2.5;35.45;19 / 34;24969;2021-10-20 19:31:33:779
7.851;9.11;3.279;7.1491;-5.9472;3.1077;0.3676;4.5318;-3.6616;-3.2794;-1.2489;-0.4361;92.0;-39.6;4.61;-6.66;154.49;37.34;-66.51;5.0;62.37;39.469097;-0.339685;5.7;NaN;8.19;2.5;35.45;19 / 34;25018;2021-10-20 19:31:33:828
21.755;22.545;16.0271;4.7022;-7.4747;4.2665;-13.2878;-10.6676;-9.0328;-3.2794;-1.2489;-0.4361;92.0;-39.6;4.61;-6.66;154.49;37.34;-66.51;5.0;62.37;39.469097;-0.339685;5.7;NaN;8.19;2.5;35.45;19 / 34;25069;2021-10-20 19:31:33:879
28.4291;11.384;-2.599;1.9345;-9.6103;-0.3543;-25.0984;-2.2427;3.9063;-2.448;-1.1565;2.457;92.0;-39.0;-0.06;-9.84;145.28;49.65;-47.78;5.0;62.37;39.469097;-0.339685;5.7;NaN;8.19;2.5;35.45;19 / 34;25119;2021-10-20 19:31:33:929
2.2571;-8.8579;6.0701;-9.3087;-1.087;2.8922;2.5615;17.1701;-4.0924;-1.8406;-0.9096;2.6513;92.0;-37.26;-6.96;-13.74;145.28;49.65;-47.78;5.0;62.37;39.469097;-0.339685;5.7;NaN;8.19;2.5;35.45;19 / 34;25169;2021-10-20 19:31:33:979
0.785;-11.355;-11.934;-5.363;1.1013;-8.1355;2.5615;17.1701;-4.0924;-1.8406;-0.9096;2.6513;92.0;-37.26;-6.96;-13.74;145.28;49.65;-47.78;5.0;60.652;39.469097;-0.339685;5.7;NaN;8.19;2.5;35.45;19 / 34;25219;2021-10-20 19:31:34:029
-2.589;-11.829;-6.434;-5.363;1.1013;-8.1355;9.2003;18.0656;16.364;11.4291;-0.0929;3.1439;92.0;-34.39;-13.01;-16.8;228.88;-6.45;146.61;5.0;60.652;39.469097;-0.339685;5.7;NaN;8.19;2.5;35.45;19 / 34;25268;2021-10-20 19:31:34:078
-2.589;-11.829;-6.434;-9.7971;0.4597;-0.0766;7.5144;14.7265;-5.5025;11.4291;-0.0929;3.1439;127.0;-34.39;-13.01;-16.8;228.88;-6.45;146.61;5.0;60.652;39.469097;-0.339685;5.7;NaN;8.19;2.5;35.45;19 / 34;25318;2021-10-20 19:31:34:128
5.1191;-7.003;-0.335;-3.5291;-9.1458;-0.3352;7.5144;14.7265;-5.5025;7.4543;-4.1876;2.245;127.0;-33.6;-13.39;-17.1;131.08;-2.69;90.45;5.0;60.652;39.469097;-0.339685;5.7;NaN;8.19;2.5;35.45;19 / 34;25369;2021-10-20 19:31:34:179
31.205;16.305;17.1311;4.7836;-7.2975;4.4819;-9.0735;-3.2232;-9.0209;6.2552;2.2067;-0.8671;127.0;-35.04;-6.84;-15.54;158.94;48.07;-46.86;5.0;60.652;39.469097;-0.339685;5.7;NaN;8.19;2.5;35.45;19 / 34;25419;2021-10-20 19:31:34:229
34.233;26.8031;6.539;8.2408;-5.3008;0.4453;-26.1806;-27.1565;-12.1304;6.2552;2.2067;-0.8671;127.0;-35.04;-6.84;-15.54;158.94;48.07;-46.86;5.0;60.652;39.469097;-0.339685;5.7;NaN;8.19;2.5;35.45;19 / 34;25469;2021-10-20 19:31:34:279
-7.504;-0.5021;-5.696;8.2408;-5.3008;0.4453;-26.1806;-27.1565;-12.1304;-6.1324;2.8214;-1.5942;127.0;-36.84;-0.49;-13.56;158.94;48.07;-46.86;5.0;60.652;39.469097;-0.339685;5.7;NaN;8.19;2.5;35.45;19 / 34;25518;2021-10-20 19:31:34:328
-2.5511;1.409;-2.7431;1.7142;5.6455;-7.8338;16.0856;2.6949;1.5164;-4.5304;0.8101;-1.64;127.0;-36.84;-0.49;-13.56;158.94;48.07;-46.86;5.0;62.633;39.469097;-0.339685;5.7;NaN;8.19;2.5;35.45;19 / 34;25568;2021-10-20 19:31:34:378
-2.5511;1.409;-2.7431;0.498;9.2368;-3.2561;13.4682;4.1499;0.1243;-4.5304;0.8101;-1.64;127.0;-38.04;-0.19;-11.7;267.01;-35.15;-167.66;5.0;62.633;39.469097;-0.339685;5.7;NaN;8.19;2.5;35.45;19 / 34;25618;2021-10-20 19:31:34:428
-6.886;1.914;-1.287;9.6391;0.5219;1.7286;13.4682;4.1499;0.1243;2.273;-7.2821;-5.0916;95.0;-38.16;-0.79;-9.84;267.01;-35.15;-167.66;5.0;62.633;39.469097;-0.339685;5.7;NaN;8.19;2.5;35.45;19 / 34;25668;2021-10-20 19:31:34:478
1.553;7.2761;1.692;9.6391;0.5219;1.7286;3.3889;0.3653;-7.6397;2.273;-7.2821;-5.0916;95.0;-38.16;-0.79;-9.84;267.01;-35.15;-167.66;5.0;62.633;39.469097;-0.339685;5.7;NaN;8.19;2.5;35.45;19 / 34;25719;2021-10-20 19:31:34:529
7.887;22.485;11.85;8.1068;-2.9305;4.6783;-4.3241;-6.1101;-13.5877;-3.0506;-1.4692;-3.9365;95.0;-38.1;-0.79;-9.0;137.29;17.39;-60.01;5.0;62.633;39.469097;-0.339685;5.7;NaN;8.19;2.5;35.45;19 / 34;25769;2021-10-20 19:31:34:579
45.072;15.654;7.2041;3.1795;-9.1602;1.4605;-43.1233;-6.2703;-9.2909;-4.7532;-0.4254;2.6324;95.0;-37.26;-2.89;-9.96;170.09;69.09;-65.33;5.0;62.633;39.469097;-0.339685;5.7;NaN;8.19;2.5;35.45;19 / 34;25819;2021-10-20 19:31:34:629
0.548;-7.41;3.015;-9.0644;-0.6656;3.6823;-43.1233;-6.2703;-9.2909;-4.7532;-0.4254;2.6324;95.0;-37.26;-2.89;-9.96;170.09;69.09;-65.33;5.0;65.229;39.469112;-0.339667;5.5;NaN;7.99;2.5;43.65;19 / 34;25869;2021-10-20 19:31:34:679
0.9041;-9.0191;-5.34;-9.0644;-0.6656;3.6823;3.1734;16.476;-3.3877;-2.9527;-0.1816;3.1129;95.0;-35.34;-8.94;-12.96;170.09;69.09;-65.33;5.0;65.229;39.469112;-0.339667;5.5;NaN;7.99;2.5;43.65;19 / 34;25918;2021-10-20 19:31:34:728
0.9041;-9.0191;-5.34;-8.1307;1.3455;-5.3199;4.6723;17.0819;5.0498;10.5666;3.0177;3.0899;95.0;-35.34;-8.94;-12.96;170.09;69.09;-65.33;5.0;65.229;39.469112;-0.339667;5.5;NaN;7.99;2.5;43.65;19 / 34;25968;2021-10-20 19:31:34:778
-4.8799;-9.4811;-9.177;-9.6726;-1.1636;-1.1301;9.3243;12.6122;-1.2703;10.5666;3.0177;3.0899;99.0;-33.19;-15.06;-15.24;195.59;-7.88;123.2;5.0;65.229;39.469112;-0.339667;5.5;NaN;7.99;2.5;43.65;19 / 34;26018;2021-10-20 19:31:34:828
4.8611;-6.132;0.6821;-9.6726;-1.1636;-1.1301;9.3243;12.6122;-1.2703;7.5103;-3.6758;2.7012;99.0;-33.36;-13.69;-14.4;195.59;-7.88;123.2;5.0;65.229;39.469112;-0.339667;5.5;NaN;7.99;2.5;43.65;19 / 34;26068;2021-10-20 19:31:34:878
14.045;2.5421;1.467;-1.0439;-9.7348;0.5698;-3.1202;4.583;-8.3282;5.1886;0.0242;0.0726;99.0;-33.36;-13.69;-14.4;195.59;-7.88;123.2;5.0;65.229;39.469112;-0.339667;5.5;NaN;7.99;2.5;43.65;19 / 34;26118;2021-10-20 19:31:34:928
44.5241;25.463;20.642;4.1611;-7.5465;4.6783;-13.1351;-11.5201;-16.3314;5.1886;0.0242;0.0726;99.0;-34.99;-7.14;-12.6;50.22;83.03;61.37;5.0;65.229;39.469112;-0.339667;5.5;NaN;7.99;2.5;43.65;19 / 34;26168;2021-10-20 19:31:34:978
4.365;7.6781;0.131;8.5234;-4.8459;0.1341;-12.3798;-15.6133;-9.0881;-8.4873;3.7533;-1.1736;99.0;-35.89;-0.06;-9.54;140.03;50.32;-41.65;5.0;60.419;39.469112;-0.339667;5.5;NaN;7.99;2.5;43.65;19 / 34;26219;2021-10-20 19:31:35:029
4.365;7.6781;0.131;8.5234;-4.8459;0.1341;-12.3798;-15.6133;-9.0881;-8.4873;3.7533;-1.1736;99.0;-35.89;-0.06;-9.54;140.03;50.32;-41.65;5.0;60.419;39.469112;-0.339667;5.5;NaN;7.99;2.5;43.65;19 / 34;26269;2021-10-20 19:31:35:079
-2.182;4.557;-2.2849;8.0637;3.8642;-4.0318;13.3344;-1.51;-1.2795;-6.9244;1.0989;-1.2204;105.0;-36.36;3.96;-6.66;304.08;-23.2;-116.57;5.0;60.419;39.469112;-0.339667;5.5;NaN;7.99;2.5;43.65;19 / 34;26318;2021-10-20 19:31:35:128
-2.621;6.168;-3.992;7.7524;3.2944;-5.023;8.695;-2.0732;-0.6667;-2.1776;-1.8099;-3.578;105.0;-36.79;5.59;-4.8;304.08;-23.2;-116.57;5.0;60.419;39.469112;-0.339667;5.5;NaN;7.99;2.5;43.65;19 / 34;26368;2021-10-20 19:31:35:178
-4.131;2.9771;1.613;5.4636;7.5896;2.9544;9.1601;4.0531;-6.2466;-2.1776;-1.8099;-3.578;105.0;-36.79;5.59;-4.8;304.08;-23.2;-116.57;5.0;60.419;39.469112;-0.339667;5.5;NaN;7.99;2.5;43.65;19 / 34;26419;2021-10-20 19:31:35:229
5.931;10.931;9.387;6.8809;-3.7302;5.9089;9.1601;4.0531;-6.2466;-1.4772;-2.5169;-4.4209;105.0;-37.2;5.81;-4.14;24.81;-50.7;-61.6;5.0;60.419;39.469112;-0.339667;5.5;NaN;7.99;2.5;43.65;19 / 34;26469;2021-10-20 19:31:35:279
42.453;27.033;19.134;4.9225;-7.7333;3.486;-2.9508;-2.3826;-13.1763;-4.8005;-0.3528;0.14;105.0;-37.2;5.81;-4.14;24.81;-50.7;-61.6;5.0;63.644;39.469112;-0.339667;5.5;NaN;7.99;2.5;43.65;19 / 34;26519;2021-10-20 19:31:35:329
11.3621;-0.478;1.065;-0.407;-9.754;0.9146;-39.025;-10.978;-11.1374;-4.8005;-0.3528;0.14;105.0;-37.86;4.31;-6.66;147.17;52.05;-54.69;5.0;63.644;39.469112;-0.339667;5.5;NaN;7.99;2.5;43.65;19 / 34;26569;2021-10-20 19:31:35:379
