sep=;
ACCELEROMETER X (m/s²);ACCELEROMETER Y (m/s²);ACCELEROMETER Z (m/s²);GRAVITY X (m/s²);GRAVITY Y (m/s²);GRAVITY Z (m/s²);LINEAR ACCELERATION X (m/s²);LINEAR ACCELERATION Y (m/s²);LINEAR ACCELERATION Z (m/s²);GYROSCOPE X (rad/s);GYROSCOPE Y (rad/s);GYROSCOPE Z (rad/s);LIGHT (lux);MAGNETIC FIELD X (μT);MAGNETIC FIELD Y (μT);MAGNETIC FIELD Z (μT);ORIENTATION Z (azimuth °);ORIENTATION X (pitch °);ORIENTATION Y (roll °);PROXIMITY (m);SOUND LEVEL (dB);LOCATION Latitude : ;LOCATION Longitude : ;LOCATION Altitude ( m);LOCATION Altitude-google ( m);LOCATION Speed ( Kmh);LOCATION Accuracy ( m);LOCATION ORIENTATION (°);Satellites in range;Time since start in ms ;YYYY-MO-DD HH-MI-SS_SSS
-3.071;9.72;-14.244;7.216;4.587;-4.798;4.089;-1.057;17.549;3.5;-2.521;-0.874;525.0;39.1;-29.5;-0.7;137.7;-12.5;-144.8;5.0;51.97;39.46892;-0.34094;69.4;NaN;;15.196;;0 / 18;9;2021-10-27 17:41:08:533
1.852;5.524;9.732;3.874;-4.132;8.006;13.109;-1.32;-23.352;3.353;-2.668;-2.007;525.0;39.4;-30.5;2.2;178.4;-30.8;-88.9;0.0;51.97;39.46892;-0.34094;69.4;NaN;;15.196;;0 / 18;58;2021-10-27 17:41:08:582
0.596;9.761;4.203;9.787;-0.086;0.603;-7.903;2.915;30.491;4.389;-2.429;-0.346;525.0;39.4;-31.8;5.9;227.2;46.1;31.6;0.0;51.97;39.46892;-0.34094;69.4;NaN;;15.196;;0 / 18;109;2021-10-27 17:41:08:633
3.664;21.396;-6.9;8.921;-0.57;-4.027;-3.158;-15.354;11.399;1.417;-0.078;-0.354;525.0;39.3;-33.0;7.4;180.0;-24.3;-79.9;0.0;51.97;39.46892;-0.34094;69.4;NaN;;15.196;;0 / 18;158;2021-10-27 17:41:08:682
-7.197;5.78;-18.225;3.285;6.843;-6.211;5.35;4.651;13.717;2.511;-0.391;1.013;525.0;38.4;-35.4;8.0;133.8;-11.4;-154.3;0.0;51.97;39.46892;-0.34094;69.4;NaN;;15.196;;0 / 18;209;2021-10-27 17:41:08:733
1.601;16.013;3.188;9.428;-1.403;-2.303;-3.76;-6.294;-2.486;0.374;0.649;0.031;517.0;38.0;-36.2;6.1;199.6;-1.4;-61.1;0.0;51.97;39.46892;-0.34094;69.4;NaN;;15.196;;0 / 18;258;2021-10-27 17:41:08:782
1.811;6.958;-1.479;9.05;-2.787;-2.557;-4.385;-0.258;2.87;1.02;0.315;1.06;517.0;37.3;-36.3;0.8;140.0;15.1;-123.2;0.0;66.36;39.46892;-0.34094;69.4;NaN;;15.196;;0 / 18;309;2021-10-27 17:41:08:833
-3.446;-0.988;-3.276;-1.695;6.211;-7.398;2.401;10.332;0.72;0.481;0.035;0.203;517.0;37.3;-36.0;-2.5;166.9;6.2;-103.1;0.0;66.36;39.46892;-0.34094;69.4;NaN;;15.196;;0 / 18;358;2021-10-27 17:41:08:882
-0.591;9.17;3.382;9.251;0.474;3.227;-0.845;4.474;-3.624;0.679;-0.308;0.874;517.0;37.4;-36.1;-4.1;203.0;-2.8;-70.8;0.0;66.36;39.46892;-0.34094;69.4;NaN;;15.196;;0 / 18;409;2021-10-27 17:41:08:933
1.079;22.895;3.219;9.72;-1.307;-0.101;-1.485;-12.717;-5.851;-1.851;1.093;-0.148;517.0;38.4;-36.9;-3.5;194.4;1.7;-80.5;0.0;66.36;39.46892;-0.34094;69.4;NaN;;15.196;;0 / 18;459;2021-10-27 17:41:08:983
-1.974;18.964;-13.198;8.207;0.575;-5.339;-3.722;-10.208;2.37;-1.201;0.592;0.421;517.0;40.2;-38.7;1.3;183.7;10.4;-88.6;0.0;66.36;39.46892;-0.34094;69.4;NaN;;15.196;;0 / 18;508;2021-10-27 17:41:09:032
0.435;9.993;-9.316;7.12;0.244;-6.742;1.062;-1.328;9.25;0.314;-0.478;0.354;154.0;41.2;-39.8;6.1;145.0;-9.2;-131.4;0.0;66.36;39.46892;-0.34094;69.4;NaN;;15.196;;0 / 18;559;2021-10-27 17:41:09:083
4.349;2.352;-10.419;-0.919;-3.673;-9.045;-4.281;9.204;7.678;1.934;-0.755;0.971;154.0;40.8;-40.9;15.4;131.7;22.2;-163.2;0.0;61.27;39.46892;-0.34094;69.4;NaN;;15.196;;0 / 18;608;2021-10-27 17:41:09:132
1.443;-6.436;-2.161;-9.002;-1.652;-3.519;0.004;14.834;-0.218;3.307;-1.279;1.303;154.0;39.7;-40.9;19.7;173.7;3.1;122.7;0.0;61.27;39.46892;-0.34094;69.4;NaN;;15.196;;0 / 18;659;2021-10-27 17:41:09:183
0.409;-2.348;3.743;-6.134;-1.341;7.537;-2.216;13.067;-5.06;5.49;0.935;3.377;154.0;37.1;-40.6;21.2;202.9;34.3;88.1;0.0;61.27;39.46892;-0.34094;69.4;NaN;;15.196;;0 / 18;709;2021-10-27 17:41:09:233
-3.521;9.481;5.617;8.27;2.38;-4.702;6.304;-3.324;-13.342;7.308;3.297;3.938;154.0;35.9;-40.7;18.8;222.3;6.8;-3.9;0.0;61.27;39.46892;-0.34094;69.4;NaN;;15.196;;0 / 18;759;2021-10-27 17:41:09:283
6.503;2.159;21.052;1.614;-2.591;9.318;2.475;9.816;-15.232;3.776;-0.323;2.274;154.0;33.7;-40.7;13.4;222.1;15.3;-9.8;0.0;61.27;39.46892;-0.34094;69.4;NaN;;15.196;;0 / 18;808;2021-10-27 17:41:09:332
-4.088;25.688;4.433;9.39;1.374;2.471;11.122;-19.49;-4.909;-2.757;4.586;-3.564;154.0;32.6;-40.6;9.8;155.0;-16.7;-112.4;0.0;61.27;39.46892;-0.34094;69.4;NaN;;15.196;;0 / 18;859;2021-10-27 17:41:09:383
-1.845;16.635;-8.021;8.882;1.034;-4.032;5.107;-6.382;6.958;-1.234;2.095;-3.501;38.0;30.3;-40.5;5.5;153.9;1.2;-115.8;0.0;61.27;39.46892;-0.34094;69.4;NaN;;15.196;;0 / 18;909;2021-10-27 17:41:09:433
-2.824;16.226;-1.551;9.629;1.513;-1.063;6.817;-7.379;0.223;-0.679;0.344;-2.733;38.0;29.1;-40.3;2.3;167.2;-8.9;-102.1;0.0;61.64;39.46892;-0.34094;69.4;NaN;;15.196;;0 / 18;958;2021-10-27 17:41:09:482
-1.984;4.957;-0.859;8.653;4.353;-1.547;4.121;3.925;-0.692;0.263;-2.34;-1.515;38.0;26.9;-39.9;-2.8;177.9;4.2;-99.3;0.0;61.64;39.46892;-0.34094;69.4;NaN;;15.196;;0 / 18;1009;2021-10-27 17:41:09:533
-0.849;2.491;-2.35;7.087;2.112;-6.445;2.43;7.329;0.297;0.222;-2.628;-1.201;38.0;25.7;-38.8;-5.9;162.4;-10.9;-133.4;0.0;61.64;39.46892;-0.34094;69.4;NaN;;15.196;;0 / 18;1058;2021-10-27 17:41:09:582
-0.947;1.175;-2.312;4.587;2.892;-8.174;2.061;8.186;0.247;0.469;-3.11;-0.639;38.0;24.6;-37.7;-9.1;156.0;-16.1;-152.7;0.0;61.64;39.46892;-0.34094;69.4;NaN;;15.196;;0 / 18;1109;2021-10-27 17:41:09:633
4.006;6.747;8.583;6.316;-2.983;6.881;-3.483;6.604;-9.787;-0.599;-1.699;-0.575;38.0;24.5;-37.6;-9.7;186.7;-14.5;-99.2;0.0;61.64;39.46892;-0.34094;69.4;NaN;;15.196;;0 / 18;1159;2021-10-27 17:41:09:683
3.609;23.562;-2.161;9.591;-1.671;-1.159;0.271;-7.312;-4.574;-2.213;1.398;0.308;38.0;26.0;-39.0;-6.7;186.4;9.8;-96.9;0.0;61.64;39.46892;-0.34094;69.4;NaN;;15.196;;0 / 18;1208;2021-10-27 17:41:09:732
1.543;24.441;1.95;9.759;-0.35;0.91;-0.94;-14.803;-2.922;-1.163;0.376;0.368;117.0;27.2;-40.4;-2.6;185.7;8.1;-88.7;0.0;56.17;39.46892;-0.34094;69.4;NaN;;15.196;;0 / 18;1259;2021-10-27 17:41:09:783
0.974;16.829;-7.901;8.298;-1.25;-5.076;-0.04;-5.875;7.326;-0.594;-0.151;0.1;117.0;28.0;-42.0;5.9;167.3;2.0;-103.0;0.0;56.17;39.46892;-0.34094;69.4;NaN;;15.196;;0 / 18;1308;2021-10-27 17:41:09:832
4.392;0.964;-9.272;-0.134;-4.942;-8.471;-2.914;8.278;8.76;0.882;-0.51;0.178;117.0;28.4;-42.2;12.7;144.6;9.2;-149.4;0.0;56.17;39.46892;-0.34094;69.4;NaN;;15.196;;0 / 18;1359;2021-10-27 17:41:09:883
2.089;-9.804;-5.256;-8.538;-1.298;-4.645;1.134;18.035;4.577;1.206;-0.52;0.304;117.0;28.9;-41.1;20.3;184.7;7.6;118.5;0.0;56.17;39.46892;-0.34094;69.4;NaN;;15.196;;0 / 18;1409;2021-10-27 17:41:09:933
0.552;-5.555;6.745;-1.978;-0.857;9.567;1.92;14.682;-10.416;6.445;-0.822;3.756;117.0;29.7;-40.7;22.1;221.7;3.6;44.7;0.0;56.17;39.46892;-0.34094;69.4;NaN;;15.196;;0 / 18;1458;2021-10-27 17:41:09:982
-0.782;10.304;0.007;9.768;0.843;0.105;3.968;-0.559;-11.964;8.875;1.546;4.37;117.0;30.8;-40.5;18.7;207.9;5.8;-24.5;0.0;56.17;39.46892;-0.34094;69.4;NaN;;15.196;;0 / 18;1509;2021-10-27 17:41:10:033
5.045;-1.093;-15.616;-0.019;-1.551;-9.682;0.411;2.667;22.216;6.833;2.25;3.86;4.0;31.6;-40.9;15.8;155.8;-0.3;-92.8;0.0;60.86;39.46892;-0.34094;69.4;NaN;;15.196;;0 / 18;1558;2021-10-27 17:41:10:082
-3.889;27.481;-6.113;8.782;2.409;-3.639;12.39;-15.263;-14.236;-4.398;5.469;-4.084;4.0;32.6;-40.8;11.5;152.8;-14.2;-112.5;0.0;60.86;39.46892;-0.34094;69.4;NaN;;15.196;;0 / 18;1609;2021-10-27 17:41:10:133
1.275;13.162;-4.753;8.882;-1.068;-4.022;4.232;-11.354;-3.706;-1.846;0.757;-3.706;4.0;32.8;-40.7;10.0;149.1;6.2;-114.4;0.0;60.86;39.46892;-0.34094;69.4;NaN;;15.196;;0 / 18;1658;2021-10-27 17:41:10:182
-3.779;20.049;0.816;9.663;1.599;-0.488;8.588;-12.089;-3.33;-2.468;1.878;-3.142;4.0;32.7;-40.1;6.7;163.9;-7.4;-98.7;0.0;60.86;39.46892;-0.34094;69.4;NaN;;15.196;;0 / 18;1709;2021-10-27 17:41:10:233
2.039;10.093;-0.84;9.151;-3.079;-1.714;-0.089;-2.925;-0.355;-0.816;-1.358;-1.925;4.0;31.9;-39.5;4.0;160.7;-0.6;-107.0;0.0;60.86;39.46892;-0.34094;69.4;NaN;;15.196;;0 / 18;1759;2021-10-27 17:41:10:283
-2.678;5.194;-2.779;4.367;2.495;-8.418;3.984;5.438;1.912;-0.8;-1.263;-1.558;4.0;29.8;-38.8;0.1;167.8;-26.1;-109.9;0.0;60.86;39.46892;-0.34094;69.4;NaN;;15.196;;0 / 18;1808;2021-10-27 17:41:10:332
-0.916;2.06;-1.771;7.824;2.978;-5.109;2.576;7.223;-1.798;-0.354;-1.868;-0.95;4.0;28.0;-38.0;-2.2;170.0;-18.5;-110.3;0.0;60.86;39.46892;-0.34094;69.4;NaN;;15.196;;0 / 18;1859;2021-10-27 17:41:10:383
0.742;0.055;4.021;0.211;-2.753;9.409;0.0;9.251;-7.266;0.019;-2.426;-0.728;74.0;26.1;-37.9;-3.8;161.1;-58.4;-128.5;0.0;61.61;39.46892;-0.34094;69.4;NaN;;15.196;;0 / 18;1908;2021-10-27 17:41:10:432
3.949;6.558;1.658;9.036;-3.768;0.584;-3.139;3.571;-4.388;-1.711;0.542;0.221;74.0;25.3;-38.0;-3.5;220.8;31.3;-19.4;0.0;61.61;39.46892;-0.34094;69.4;NaN;;15.196;;0 / 18;1959;2021-10-27 17:41:10:483
3.109;22.966;-1.479;9.649;-1.7;-0.455;-3.361;-11.116;-1.929;-1.779;0.866;0.76;74.0;25.5;-38.9;0.8;176.2;10.0;-92.7;0.0;61.61;39.46892;-0.34094;69.4;NaN;;15.196;;0 / 18;2008;2021-10-27 17:41:10:532
3.418;22.064;-5.579;9.242;-1.274;-3.021;-2.271;-12.896;3.741;-0.719;-0.065;0.475;74.0;25.6;-39.4;5.6;162.3;9.0;-101.5;0.0;61.61;39.46892;-0.34094;69.4;NaN;;15.196;;0 / 18;2059;2021-10-27 17:41:10:583
1.086;9.936;-13.076;4.798;-0.91;-8.509;0.429;-4.468;10.068;0.284;-0.685;0.202;74.0;25.6;-39.1;14.3;147.9;4.7;-120.5;0.0;61.61;39.46892;-0.34094;69.4;NaN;;15.196;;0 / 18;2108;2021-10-27 17:41:10:632
3.094;1.144;-9.55;1.374;-3.208;-9.165;-1.832;8.089;8.124;0.738;-0.769;0.133;74.0;25.5;-37.9;19.4;142.1;17.4;-158.2;0.0;61.61;39.46892;-0.34094;69.4;NaN;;15.196;;0 / 18;2159;2021-10-27 17:41:10:683
1.843;-5.266;-3.808;-7.949;-3.792;-4.314;0.096;13.787;1.996;2.637;-1.606;1.14;74.0;25.0;-36.7;24.4;191.0;22.7;118.5;0.0;57.47;39.46892;-0.34094;69.4;NaN;;15.196;;0 / 18;2208;2021-10-27 17:41:10:732
1.527;0.385;7.075;-1.719;-3.788;8.882;-0.762;11.764;-9.023;4.643;-0.786;3.266;83.0;25.2;-36.5;24.4;228.3;22.7;11.0;0.0;57.47;39.46892;-0.34094;69.4;NaN;;15.196;;0 / 18;2259;2021-10-27 17:41:10:783
-1.63;6.666;2.716;7.992;2.38;-5.167;6.655;0.736;-11.172;3.274;3.042;4.718;83.0;26.8;-37.5;20.9;195.4;-1.9;-31.8;0.0;57.47;39.46892;-0.34094;69.4;NaN;;15.196;;0 / 18;2308;2021-10-27 17:41:10:832
4.614;11.113;30.913;0.919;-1.81;9.596;-0.789;7.137;-41.37;-0.778;4.291;2.149;83.0;28.4;-37.9;18.2;143.5;2.1;-178.0;0.0;57.47;39.46892;-0.34094;69.4;NaN;;15.196;;0 / 18;2358;2021-10-27 17:41:10:882
2.333;21.348;4.243;9.783;-0.685;-0.206;3.642;-12.284;-6.024;-1.328;3.298;-3.823;83.0;30.9;-38.6;14.2;165.7;-0.3;-82.8;0.0;57.47;39.46892;-0.34094;69.4;NaN;;15.196;;0 / 18;2409;2021-10-27 17:41:10:933
-0.643;14.132;-3.983;9.639;0.431;-1.757;5.59;-5.248;1.65;-0.408;0.515;-3.043;83.0;32.0;-39.2;11.5;149.2;-0.3;-112.4;0.0;57.47;39.46892;-0.34094;69.4;NaN;;15.196;;0 / 18;2458;2021-10-27 17:41:10:982
-0.047;16.192;-3.705;9.615;0.335;-1.901;5.752;-12.212;-0.357;-0.623;0.171;-2.62;83.0;32.9;-38.8;5.6;166.0;-4.1;-94.0;0.0;57.47;39.46892;-0.34094;69.4;NaN;;15.196;;0 / 18;2509;2021-10-27 17:41:11:033
1.393;10.565;-0.909;9.596;0.555;-1.935;1.529;-1.415;-0.87;-0.382;-0.946;-1.535;61.0;33.1;-38.7;1.1;163.7;3.3;-103.9;0.0;63.31;39.46892;-0.34094;69.4;NaN;;15.196;;0 / 18;2558;2021-10-27 17:41:11:082
-1.405;0.902;-4.842;1.968;2.567;-9.256;4.775;5.369;2.715;-0.023;-2.142;-1.139;61.0;32.3;-37.3;-5.2;142.0;-15.2;-168.0;0.0;63.31;39.46892;-0.34094;69.4;NaN;;15.196;;0 / 18;2609;2021-10-27 17:41:11:133
0.186;3.094;0.344;8.068;-0.048;-5.574;1.911;6.098;-4.049;0.216;-2.727;-0.706;61.0;31.3;-36.9;-9.4;210.7;-3.9;-61.1;0.0;63.31;39.46892;-0.34094;69.4;NaN;;15.196;;0 / 18;2659;2021-10-27 17:41:11:183
3.351;-0.634;5.273;-0.23;-4.86;8.514;-1.921;9.37;-3.991;0.576;-3.085;-0.194;61.0;30.1;-36.3;-13.0;119.6;40.5;-163.7;0.0;63.31;39.46892;-0.34094;69.4;NaN;;15.196;;0 / 18;2708;2021-10-27 17:41:11:232
-0.931;15.324;2.582;9.716;0.053;1.341;0.387;-0.98;-2.94;-2.236;0.442;0.759;61.0;29.5;-37.1;-13.3;228.5;31.8;-33.2;0.0;63.31;39.46892;-0.34094;69.4;NaN;;15.196;;0 / 18;2759;2021-10-27 17:41:11:283
2.194;22.579;-0.359;9.725;-1.125;-0.565;-0.668;-13.463;-0.88;-1.67;-0.042;0.428;61.0;28.6;-39.8;-8.6;193.2;4.7;-90.4;0.0;63.31;39.46892;-0.34094;69.4;NaN;;15.196;;0 / 18;2808;2021-10-27 17:41:11:332
1.582;17.511;-9.564;8.983;-1.159;-3.764;-1.229;-11.47;7.13;-0.44;-0.946;0.105;61.0;27.7;-41.6;-2.8;171.4;9.2;-107.6;0.0;55.54;39.46892;-0.34094;69.4;NaN;;15.196;;0 / 18;2859;2021-10-27 17:41:11:383
5.536;5.866;-10.39;5.416;-3.816;-7.23;-3.343;-1.091;9.278;0.437;-1.208;0.115;87.0;26.0;-43.6;7.9;151.0;16.2;-128.8;0.0;55.54;39.46892;-0.34094;69.4;NaN;;15.196;;0 / 18;2908;2021-10-27 17:41:11:432
1.196;-1.654;-6.177;-4.851;-0.646;-8.499;0.246;10.646;4.596;1.626;-1.15;0.763;87.0;25.2;-43.3;13.4;145.4;29.2;-165.7;0.0;55.54;39.46892;-0.34094;69.4;NaN;;15.196;;0 / 18;2959;2021-10-27 17:41:11:483
1.201;-3.47;-0.696;-8.274;-3.452;-3.97;0.744;15.73;0.948;3.92;-1.299;2.277;87.0;24.3;-42.5;18.2;186.7;20.6;115.6;0.0;55.54;39.46892;-0.34094;69.4;NaN;;15.196;;0 / 18;3008;2021-10-27 17:41:11:532
2.697;3.846;7.997;8.212;-0.704;5.31;0.88;4.58;-13.595;5.093;0.575;3.919;87.0;24.1;-42.1;17.3;207.3;17.1;-19.1;0.0;55.54;39.46892;-0.34094;69.4;NaN;;15.196;;0 / 18;3059;2021-10-27 17:41:11:583
-2.515;-0.832;-18.416;-0.747;0.776;-9.749;5.858;0.184;-5.925;1.208;4.033;4.813;87.0;24.8;-41.5;13.4;159.3;-7.2;-94.4;0.0;55.54;39.46892;-0.34094;69.4;NaN;;15.196;;0 / 18;3108;2021-10-27 17:41:11:632
4.009;16.023;35.899;5.085;-0.757;8.351;1.826;-7.716;-43.387;-4.934;8.063;-0.446;87.0;24.9;-40.9;10.4;154.8;5.4;161.9;0.0;55.54;39.46892;-0.34094;69.4;NaN;;15.196;;0 / 18;3159;2021-10-27 17:41:11:683
0.181;9.1;-3.612;8.686;-1.164;-4.401;6.825;-2.182;-0.752;-1.56;3.701;-3.996;87.0;24.6;-40.0;7.4;167.0;3.7;-94.3;0.0;59.2;39.46892;-0.34094;69.4;NaN;;15.196;;0 / 18;3208;2021-10-27 17:41:11:732
0.806;19.781;-2.853;9.553;-0.8;-2.064;3.169;-9.867;3.462;-0.842;0.365;-2.818;13.0;24.3;-39.5;6.1;156.6;7.6;-115.1;0.0;59.2;39.46892;-0.34094;69.4;NaN;;15.196;;0 / 18;3259;2021-10-27 17:41:11:783
-0.885;15.498;-2.206;9.467;0.206;-2.557;6.507;-10.466;-2.212;-1.193;1.106;-2.632;13.0;24.0;-38.3;1.7;180.1;-6.4;-82.8;0.0;59.2;39.46892;-0.34094;69.4;NaN;;15.196;;0 / 18;3308;2021-10-27 17:41:11:832
-1.007;7.978;-2.027;9.644;0.134;-1.786;2.654;-0.072;-0.553;-0.462;-1.255;-1.641;13.0;23.7;-37.3;-1.0;167.7;9.4;-107.9;0.0;59.2;39.46892;-0.34094;69.4;NaN;;15.196;;0 / 18;3359;2021-10-27 17:41:11:883
-1.421;2.025;-3.549;5.373;3.802;-7.274;3.953;7.091;0.912;-0.347;-1.712;-1.349;13.0;22.3;-35.4;-5.3;153.6;-15.1;-157.7;0.0;59.2;39.46892;-0.34094;69.4;NaN;;15.196;;0 / 18;3409;2021-10-27 17:41:11:933
-0.315;1.847;-0.564;9.175;0.326;-3.443;2.127;7.817;-1.824;0.609;-3.225;-0.324;13.0;21.9;-34.0;-6.8;183.5;-18.2;-101.7;0.0;59.2;39.46892;-0.34094;69.4;NaN;;15.196;;0 / 18;3458;2021-10-27 17:41:11:982
3.568;3.554;5.27;7.159;-4.29;5.152;-1.879;5.02;-7.451;-0.217;-1.821;-0.246;13.0;22.2;-33.4;-7.1;213.4;32.7;2.5;0.0;62.19;39.46892;-0.34094;69.4;NaN;;15.196;;0 / 18;3509;2021-10-27 17:41:12:033
1.496;20.772;-0.83;9.601;-1.729;-0.986;1.044;-10.299;-0.961;-1.965;1.315;0.21;58.0;22.6;-33.7;-5.0;201.5;12.4;-76.4;0.0;62.19;39.46892;-0.34094;69.4;NaN;;15.196;;0 / 18;3558;2021-10-27 17:41:12:082
4.002;23.993;-4.648;9.481;-1.556;-1.963;-1.953;-14.404;3.245;-1.135;0.398;0.224;58.0;23.1;-35.4;0.4;176.6;8.4;-94.6;0.0;62.19;39.46892;-0.34094;69.4;NaN;;15.196;;0 / 18;3609;2021-10-27 17:41:12:133
1.642;16.106;-7.283;8.758;-0.843;-4.334;0.163;-7.946;6.261;-0.032;-0.684;-0.156;58.0;23.3;-36.4;5.3;160.1;6.0;-108.9;0.0;62.19;39.46892;-0.34094;69.4;NaN;;15.196;;0 / 18;3658;2021-10-27 17:41:12:182
5.546;2.542;-10.189;1.125;-3.936;-8.911;-2.78;7.78;8.337;0.825;-0.643;0.032;58.0;24.1;-36.7;13.0;141.9;24.0;-154.7;0.0;62.19;39.46892;-0.34094;69.4;NaN;;15.196;;0 / 18;3709;2021-10-27 17:41:12:233
0.564;-4.595;-4.598;-7.432;-0.642;-6.364;1.711;13.402;2.529;2.155;-0.989;0.745;58.0;25.0;-35.9;17.2;150.1;16.6;175.0;0.0;62.19;39.46892;-0.34094;69.4;NaN;;15.196;;0 / 18;3759;2021-10-27 17:41:12:283
1.768;-5.1;3.066;-7.163;-2.586;6.177;-0.063;15.71;-3.27;4.234;-1.291;2.467;58.0;26.4;-34.6;19.6;222.1;15.3;49.2;0.0;60.09;39.46892;-0.34094;69.4;NaN;;15.196;;0 / 18;3808;2021-10-27 17:41:12:332
-0.938;8.332;1.055;9.677;0.891;1.307;5.48;-1.109;-8.892;5.974;1.388;4.42;58.0;27.0;-34.3;17.8;185.0;-1.7;-50.9;0.0;60.09;39.46892;-0.34094;69.4;NaN;;15.196;;0 / 18;3859;2021-10-27 17:41:12:383
6.218;-0.952;-37.01;-0.934;-2.969;-9.299;4.659;2.68;23.925;2.825;1.549;2.624;6.0;27.5;-33.6;14.3;140.0;2.5;-176.2;0.0;60.09;39.46892;-0.34094;69.4;NaN;;15.196;;0 / 18;3908;2021-10-27 17:41:12:432
-5.239;28.635;-12.346;8.796;1.432;-4.099;12.088;-21.643;4.812;-2.826;5.208;-3.489;6.0;26.9;-33.6;11.9;222.9;12.8;2.3;0.0;60.09;39.46892;-0.34094;69.4;NaN;;15.196;;0 / 18;3959;2021-10-27 17:41:12:483
1.113;12.616;-2.764;9.543;-0.833;-2.097;5.102;-7.617;0.096;-1.681;3.551;-4.061;6.0;24.9;-33.3;10.3;154.0;4.9;-102.4;0.0;60.09;39.46892;-0.34094;69.4;NaN;;15.196;;0 / 18;4008;2021-10-27 17:41:12:532
-0.663;19.678;-1.565;9.797;0.177;-0.359;5.897;-12.295;-1.034;-0.614;0.637;-3.024;6.0;23.5;-33.5;8.6;155.0;1.5;-105.5;0.0;60.09;39.46892;-0.34094;69.4;NaN;;15.196;;0 / 18;4058;2021-10-27 17:41:12:582
2.767;12.265;-2.573;9.428;-2.188;-1.566;2.705;-5.142;2.605;-0.614;0.637;-3.024;6.0;20.3;-32.9;4.9;159.5;3.9;-106.9;0.0;60.09;39.46892;-0.34094;69.4;NaN;;15.196;;0 / 18;4108;2021-10-27 17:41:12:632
-2.115;4.054;-4.655;5.42;3.16;-7.537;6.504;1.009;-0.026;-0.614;0.637;-3.024;6.0;18.1;-32.4;1.9;173.0;-8.8;-94.2;0.0;63.84;39.46892;-0.34094;69.4;NaN;;15.196;;0 / 18;4159;2021-10-27 17:41:12:683
-0.794;2.448;-0.876;9.539;2.27;0.057;3.734;6.775;-0.367;-0.03;-1.787;-1.531;6.0;15.1;-31.5;-2.5;185.1;-13.4;-89.7;0.0;63.84;39.46892;-0.34094;69.4;NaN;;15.196;;0 / 18;4209;2021-10-27 17:41:12:733
2.202;-1.493;4.298;-3.941;-6.565;6.129;1.863;9.381;-1.929;0.37;-3.237;-0.724;44.0;14.2;-31.3;-5.2;196.4;42.0;32.7;0.0;63.84;39.46892;-0.34094;69.4;NaN;;15.196;;0 / 18;4259;2021-10-27 17:41:12:783
2.348;10.74;1.859;9.16;-2.576;2.37;-0.877;4.049;-5.36;-2.337;1.905;0.973;44.0;14.4;-32.5;-7.0;209.9;28.8;-48.6;0.0;63.84;39.46892;-0.34094;69.4;NaN;;15.196;;0 / 18;4309;2021-10-27 17:41:12:833
4.188;23.661;-1.888;9.606;-1.714;-0.967;1.866;-10.582;-1.781;-1.963;1.281;0.016;44.0;15.1;-34.6;-6.2;191.5;-0.3;-91.1;0.0;63.84;39.46892;-0.34094;69.4;NaN;;15.196;;0 / 18;4358;2021-10-27 17:41:12:882
6.548;24.932;-9.442;8.844;-2.413;-3.481;-3.788;-15.599;7.209;-0.674;-1.102;-0.041;44.0;16.9;-38.3;-1.1;170.8;14.2;-111.5;0.0;63.84;39.46892;-0.34094;69.4;NaN;;15.196;;0 / 18;4409;2021-10-27 17:41:12:933
4.842;8.013;-8.028;5.942;-4.08;-6.651;-2.398;-4.786;7.628;0.355;-1.939;0.236;44.0;18.7;-40.4;4.6;151.8;24.6;-138.2;0.0;58.12;39.46892;-0.34094;69.4;NaN;;15.196;;0 / 18;4458;2021-10-27 17:41:12:982
2.86;0.804;-8.159;0.579;-3.16;-9.266;-1.465;7.78;7.328;1.573;-1.5;0.876;44.0;20.8;-41.9;13.0;151.5;24.2;-165.9;0.0;58.12;39.46892;-0.34094;69.4;NaN;;15.196;;0 / 18;4509;2021-10-27 17:41:13:033
2.367;-6.276;-2.936;-8.552;-3.175;-3.596;0.751;15.37;0.808;2.865;-1.529;1.93;17.0;22.0;-42.2;16.9;165.4;11.0;153.0;0.0;58.12;39.46892;-0.34094;69.4;NaN;;15.196;;0 / 18;4558;2021-10-27 17:41:13:082
0.081;0.667;7.245;0.096;0.057;9.807;3.929;9.003;-10.321;3.976;-1.405;2.688;17.0;23.8;-42.1;17.5;209.5;-0.3;-0.6;0.0;58.12;39.46892;-0.34094;69.4;NaN;;15.196;;0 / 18;4609;2021-10-27 17:41:13:133
0.519;6.685;6.216;0.871;-0.929;-9.725;5.227;-3.207;-13.102;-4.085;7.429;2.05;17.0;25.0;-42.2;15.7;186.4;2.7;-48.5;0.0;58.12;39.46892;-0.34094;69.4;NaN;;15.196;;0 / 18;4658;2021-10-27 17:41:13:182
6.017;-0.641;50.079;0.345;-1.087;9.74;0.714;12.739;-53.646;-4.085;7.429;2.05;17.0;26.7;-42.4;12.8;215.1;5.9;16.5;0.0;58.12;39.46892;-0.34094;69.4;NaN;;15.196;;0 / 18;4709;2021-10-27 17:41:13:233
4.246;28.075;0.088;9.72;-1.245;-0.469;10.966;-22.938;14.389;-4.085;7.429;2.05;17.0;27.3;-42.7;11.6;182.1;-14.3;-62.5;0.0;58.12;39.46892;-0.34094;69.4;NaN;;15.196;;0 / 18;4759;2021-10-27 17:41:13:283
1.043;19.405;-4.193;9.572;-0.182;-2.131;3.282;-8.944;-0.563;-0.421;0.358;-2.562;17.0;27.7;-42.4;9.2;160.3;1.1;-102.6;0.0;61.87;39.46892;-0.34094;69.4;NaN;;15.196;;0 / 18;4808;2021-10-27 17:41:13:332
1.718;18.589;-4.117;9.495;-0.967;-2.246;2.299;-8.969;1.649;-0.421;0.358;-2.562;17.0;27.9;-42.1;6.1;166.5;1.8;-98.0;0.0;61.87;39.46892;-0.34094;69.4;NaN;;15.196;;0 / 18;4859;2021-10-27 17:41:13:383
-2.424;5.751;-0.157;9.266;3.141;0.666;4.052;1.625;-2.222;-0.605;-0.121;-1.45;9.0;27.6;-41.2;1.6;167.1;15.2;-99.6;0.0;61.87;39.46892;-0.34094;69.4;NaN;;15.196;;0 / 18;4908;2021-10-27 17:41:13:432
-0.78;2.185;-5.124;3.812;0.828;-8.997;6.135;6.879;1.525;-0.226;-1.497;-1.268;9.0;26.9;-40.7;-1.1;171.6;-29.1;-105.3;0.0;61.87;39.46892;-0.34094;69.4;NaN;;15.196;;0 / 18;4959;2021-10-27 17:41:13:483
-0.203;-0.552;1.771;-2.308;1.906;9.337;2.461;8.682;-2.563;0.445;-2.727;-0.502;9.0;26.5;-40.1;-2.6;214.3;-11.2;13.9;0.0;61.87;39.46892;-0.34094;69.4;NaN;;15.196;;0 / 18;5008;2021-10-27 17:41:13:532
3.26;0.069;3.319;0.417;-7.288;6.551;-1.226;9.948;-6.683;0.788;-3.944;-0.74;9.0;26.3;-40.1;-2.5;223.3;48.0;-3.6;0.0;61.87;39.46892;-0.34094;69.4;NaN;;15.196;;0 / 18;5059;2021-10-27 17:41:13:583
-0.823;15.022;2.168;9.792;-0.464;0.196;-0.358;1.336;-2.507;-1.015;1.427;2.425;9.0;26.2;-40.6;-0.2;176.3;36.0;-92.6;0.0;62.44;39.46892;-0.34094;69.4;NaN;;15.196;;0 / 18;5108;2021-10-27 17:41:13:632
1.78;26.002;-5.586;9.529;-0.551;-2.26;-1.366;-16.86;-3.978;-1.311;1.221;-0.358;9.0;25.1;-41.8;5.3;178.0;8.6;-86.2;0.0;62.44;39.46892;-0.34094;69.4;NaN;;15.196;;0 / 18;5158;2021-10-27 17:41:13:682
6.458;21.049;-7.283;8.897;-2.667;-3.151;-4.133;-12.17;5.515;-0.796;0.508;-0.249;9.0;24.4;-42.7;10.4;158.2;15.0;-104.3;0.0;62.44;39.46892;-0.34094;69.4;NaN;;15.196;;0 / 18;5209;2021-10-27 17:41:13:733
6.031;4.753;-11.175;4.027;-3.989;-8.006;-3.015;2.663;10.4;0.335;0.012;-0.407;21.0;23.5;-42.1;19.0;143.5;14.5;-146.0;0.0;62.44;39.46892;-0.34094;69.4;NaN;;15.196;;0 / 18;5259;2021-10-27 17:41:13:783
0.117;-2.039;-6.766;-1.235;-0.536;-9.716;1.354;9.205;6.171;1.585;-0.731;0.352;21.0;23.1;-40.6;24.2;151.0;10.5;-176.2;0.0;62.44;39.46892;-0.34094;69.4;NaN;;15.196;;0 / 18;5309;2021-10-27 17:41:13:833
1.579;-4.179;-0.351;-9.131;-3.567;-0.187;1.569;13.364;-2.051;1.585;-0.731;0.352;21.0;23.0;-38.8;28.1;171.3;-0.1;149.3;0.0;62.44;39.46892;-0.34094;69.4;NaN;;15.196;;0 / 18;5358;2021-10-27 17:41:13:882
2.448;2.654;8.351;7.484;-2.624;5.775;2.105;0.866;-10.21;3.894;-0.115;3.037;21.0;23.5;-38.8;26.6;203.3;17.0;-22.6;0.0;62.44;39.46892;-0.34094;69.4;NaN;;15.196;;0 / 18;5409;2021-10-27 17:41:13:933
0.354;4.253;-1.479;-0.297;0.005;-9.807;6.979;4.576;1.872;3.894;-0.115;3.037;21.0;24.9;-39.7;24.1;142.8;5.5;-102.5;0.0;60.17;39.46892;-0.34094;69.4;NaN;;15.196;;0 / 18;5458;2021-10-27 17:41:13:982
1.622;10.187;29.645;4.472;-0.053;8.729;1.672;4.559;-40.414;-1.7;5.011;0.816;21.0;26.2;-40.1;21.7;157.6;17.0;164.5;0.0;60.17;39.46892;-0.34094;69.4;NaN;;15.196;;0 / 18;5509;2021-10-27 17:41:14:033
6.058;12.43;-16.848;8.538;-3.979;2.734;6.07;-24.473;-11.678;-1.113;4.161;-3.529;0.0;28.0;-40.2;18.7;148.4;-13.9;-108.5;0.0;60.17;39.46892;-0.34094;69.4;NaN;;15.196;;0 / 18;5558;2021-10-27 17:41:14:082
-2.092;19.872;5.627;9.448;0.919;2.471;3.386;-7.445;-2.398;-0.005;0.45;-2.315;0.0;28.6;-40.1;16.0;161.4;0.8;-84.9;0.0;60.17;39.46892;-0.34094;69.4;NaN;;15.196;;0 / 18;5609;2021-10-27 17:41:14:133
4.203;12.344;-1.768;9.505;-1.757;-1.662;7.827;-10.722;-0.538;-0.356;0.533;-2.223;0.0;28.7;-40.0;12.8;161.5;-9.8;-93.6;0.0;60.17;39.46892;-0.34094;69.4;NaN;;15.196;;0 / 18;5659;2021-10-27 17:41:14:183
-1.529;6.216;1.345;9.227;2.337;2.356;5.224;2.514;-1.596;0.023;-0.788;-1.262;0.0;28.5;-40.0;9.5;160.7;2.1;-99.4;0.0;60.17;39.46892;-0.34094;69.4;NaN;;15.196;;0 / 18;5708;2021-10-27 17:41:14:232
0.99;-0.074;-2.745;0.12;-2.543;-9.471;2.526;8.852;2.956;-0.403;-0.377;-1.65;0.0;28.3;-39.7;5.0;149.6;-3.9;-134.9;0.0;62.91;39.46892;-0.34094;69.4;NaN;;15.196;;0 / 18;5759;2021-10-27 17:41:14:283
-0.844;0.335;3.791;-1.231;4.836;8.442;3.181;10.45;-3.633;-0.236;-1.236;-1.136;0.0;27.7;-40.0;3.5;219.1;-29.5;8.3;0.0;62.91;39.46892;-0.34094;69.4;NaN;;15.196;;0 / 18;5809;2021-10-27 17:41:14:333
-0.505;4.392;2.685;4.99;-1.915;8.222;1.196;8.618;-6.865;-2.027;2.203;-1.909;0.0;27.5;-40.3;3.8;213.6;5.0;-9.7;0.0;62.91;39.46892;-0.34094;69.4;NaN;;15.196;;0 / 18;5858;2021-10-27 17:41:14:382
16.281;34.166;-25.489;7.58;-3.859;-4.879;-15.585;-24.944;26.116;-0.302;-0.59;-0.837;11.0;26.7;-41.6;7.9;166.7;-15.1;-100.7;0.0;62.91;39.46892;-0.34094;69.4;NaN;;15.196;;0 / 18;5908;2021-10-27 17:41:14:432
4.756;15.314;0.684;9.256;-3.117;-0.895;-3.064;-5.198;1.013;1.047;-2.701;0.93;11.0;25.9;-42.3;11.9;145.5;30.5;-107.1;0.0;62.91;39.46892;-0.34094;69.4;NaN;;15.196;;0 / 18;5959;2021-10-27 17:41:14:483
2.558;2.324;-12.547;1.872;-2.658;-9.251;-1.172;6.873;11.0;1.381;-2.36;1.043;11.0;23.3;-42.6;19.0;147.9;-3.8;-168.3;0.0;62.91;39.46892;-0.34094;69.4;NaN;;15.196;;0 / 18;6009;2021-10-27 17:41:14:533
3.518;1.701;-6.017;1.824;-5.186;-8.121;-1.041;5.989;5.305;1.868;-1.796;1.512;11.0;21.8;-42.3;22.7;144.8;26.3;-153.7;0.0;59.71;39.46892;-0.34094;69.4;NaN;;15.196;;0 / 18;6059;2021-10-27 17:41:14:583
1.847;-4.011;-1.797;-8.337;-4.185;-3.026;0.919;12.171;-0.309;2.723;-2.238;2.117;11.0;20.5;-42.4;24.4;169.8;41.6;156.7;0.0;59.71;39.46892;-0.34094;69.4;NaN;;15.196;;0 / 18;6109;2021-10-27 17:41:14:633
1.39;1.34;5.854;1.925;-2.682;9.237;3.8;5.7;-11.103;2.62;-0.407;2.765;11.0;20.5;-42.9;22.6;214.2;6.2;20.8;0.0;59.71;39.46892;-0.34094;69.4;NaN;;15.196;;0 / 18;6159;2021-10-27 17:41:14:683
3.044;-0.447;-3.841;-0.776;-4.008;-8.921;3.846;5.212;-8.731;-0.96;4.721;4.236;11.0;21.0;-44.4;14.8;157.3;24.1;175.0;0.0;59.71;39.46892;-0.34094;69.4;NaN;;15.196;;0 / 18;6209;2021-10-27 17:41:14:733
3.662;18.167;19.623;6.867;-0.915;6.943;-0.656;-2.433;-0.944;-1.651;4.011;-1.965;0.0;20.8;-44.8;9.1;191.4;5.4;-44.7;0.0;59.71;39.46892;-0.34094;69.4;NaN;;15.196;;0 / 18;6258;2021-10-27 17:41:14:782
5.601;6.685;-16.944;4.688;-3.917;-7.671;4.478;-6.433;-22.129;-1.405;3.045;-3.323;0.0;19.6;-45.1;3.1;188.2;-5.4;-57.0;0.0;59.71;39.46892;-0.34094;69.4;NaN;;15.196;;0 / 18;6308;2021-10-27 17:41:14:832
4.425;16.889;8.909;8.413;-2.093;4.583;-0.056;-8.963;-6.592;-0.808;-1.19;-1.842;0.0;18.4;-44.6;1.1;157.2;16.3;-148.0;0.0;59.71;39.46892;-0.34094;69.4;NaN;;15.196;;0 / 18;6358;2021-10-27 17:41:14:882
2.728;19.393;-3.777;9.725;-1.202;0.33;3.162;-9.627;3.175;-1.158;-0.226;-2.113;0.0;16.1;-43.5;-2.6;185.0;7.0;-88.1;0.0;63.02;39.46892;-0.34094;69.4;NaN;;15.196;;0 / 18;6409;2021-10-27 17:41:14:933
1.338;8.466;-1.005;9.687;-1.456;-0.503;3.307;-0.568;-2.889;-0.858;-1.558;-0.937;0.0;14.0;-42.2;-5.9;196.4;-2.6;-58.1;0.0;63.02;39.46892;-0.34094;69.4;NaN;;15.196;;0 / 18;6459;2021-10-27 17:41:14:983
-1.031;1.709;0.825;8.021;4.204;3.764;4.644;2.023;-3.464;-1.517;0.963;-1.449;0.0;8.5;-40.9;-10.1;194.7;-6.8;-79.0;0.0;63.02;39.46892;-0.34094;69.4;NaN;;15.196;;0 / 18;6509;2021-10-27 17:41:15:033
-2.51;3.437;2.376;5.928;6.349;4.554;5.553;7.409;-2.057;-1.445;2.657;-1.583;4.0;3.7;-40.7;-10.6;205.3;-56.6;-5.9;0.0;63.02;39.46892;-0.34094;69.4;NaN;;15.196;;0 / 18;6558;2021-10-27 17:41:15:082
0.517;-1.385;-1.984;-5.483;-1.346;-8.016;1.431;10.709;3.588;-1.664;10.274;0.597;4.0;-2.1;-40.8;-7.6;177.1;-20.3;-1.6;0.0;63.02;39.46892;-0.34094;69.4;NaN;;15.196;;0 / 18;6608;2021-10-27 17:41:15:132
-1.563;6.616;1.414;9.486;1.671;1.863;3.052;3.15;2.198;-1.664;10.274;0.597;4.0;-5.7;-41.5;-3.4;181.1;-17.2;-69.9;0.0;63.02;39.46892;-0.34094;69.4;NaN;;15.196;;0 / 18;6659;2021-10-27 17:41:15:183
6.831;28.694;-6.41;9.414;-2.097;-1.786;-1.377;-20.429;16.789;-0.207;-15.425;-1.879;4.0;-10.5;-41.5;4.6;182.4;5.7;-113.6;0.0;57.58;39.46892;-0.34094;69.4;NaN;;15.196;;0 / 18;6709;2021-10-27 17:41:15:233
5.354;10.596;-18.383;4.621;-2.682;-8.222;0.033;-2.522;18.501;-0.412;-10.979;0.104;4.0;-14.5;-40.6;10.3;174.4;3.2;-103.1;0.0;57.58;39.46892;-0.34094;69.4;NaN;;15.196;;0 / 18;6759;2021-10-27 17:41:15:283
7.623;5.541;-11.264;3.371;-4.539;-8.016;-4.35;2.461;12.19;-0.192;-8.514;0.914;4.0;-20.0;-36.7;17.2;195.2;27.6;-157.2;0.0;57.58;39.46892;-0.34094;69.4;NaN;;15.196;;0 / 18;6809;2021-10-27 17:41:15:333
1.771;-0.303;-4.708;0.024;-3.05;-9.323;3.322;7.764;4.623;0.572;-5.829;1.912;4.0;-22.9;-33.8;19.9;201.8;15.6;-162.5;0.0;57.58;39.46892;-0.34094;69.4;NaN;;15.196;;0 / 18;6859;2021-10-27 17:41:15:383
3.324;0.502;1.089;2.82;-8.906;2.983;1.382;9.597;-2.237;1.897;-3.824;2.523;8.0;-24.9;-30.7;22.6;256.8;57.6;117.5;0.0;57.58;39.46892;-0.34094;69.4;NaN;;15.196;;0 / 18;6909;2021-10-27 17:41:15:433
0.811;1.776;-0.825;8.629;-3.673;-2.878;4.879;4.431;-3.733;1.656;-1.604;1.773;8.0;-25.4;-30.2;23.0;139.6;21.7;-73.3;0.0;57.58;39.46892;-0.34094;69.4;NaN;;15.196;;0 / 18;6959;2021-10-27 17:41:15:483
-0.031;-4.301;-2.467;-9.797;0.0;0.45;6.612;8.57;2.269;2.163;-1.459;2.171;8.0;-23.9;-30.9;23.6;226.5;-1.5;152.8;0.0;62.11;39.46892;-0.34094;69.4;NaN;;15.196;;0 / 18;7009;2021-10-27 17:41:15:533
5.902;27.277;-8.945;8.557;-1.068;-4.669;3.353;-19.79;-0.416;6.02;10.369;-2.421;8.0;-22.6;-32.6;23.9;136.7;7.0;-62.4;0.0;62.11;39.46892;-0.34094;69.4;NaN;;15.196;;0 / 18;7059;2021-10-27 17:41:15:583
-2.994;7.413;0.9;8.868;4.032;1.13;10.386;-6.182;-1.316;6.177;10.16;-4.187;8.0;-19.9;-34.0;24.8;140.0;-10.6;-90.0;0.0;62.11;39.46892;-0.34094;69.4;NaN;;15.196;;0 / 18;7109;2021-10-27 17:41:15:633
0.806;18.957;-7.329;9.318;-0.259;-3.055;6.081;-11.329;9.975;4.286;7.545;-3.17;8.0;-18.2;-35.2;25.6;149.5;-1.3;-102.6;0.0;62.11;39.46892;-0.34094;69.4;NaN;;15.196;;0 / 18;7159;2021-10-27 17:41:15:683
-2.068;17.466;-1.39;9.687;1.025;-1.135;8.64;-10.778;1.133;4.06;6.66;-3.206;8.0;-16.1;-36.2;25.3;145.8;-6.0;-96.7;0.0;62.11;39.46892;-0.34094;69.4;NaN;;15.196;;0 / 18;7209;2021-10-27 17:41:15:733
3.408;10.283;-2.915;9.218;-2.504;-2.217;0.072;-1.54;4.968;4.06;6.66;-3.206;0.0;-15.2;-37.4;24.2;158.8;21.1;-112.1;0.0;62.11;39.46892;-0.34094;69.4;NaN;;15.196;;0 / 18;7259;2021-10-27 17:41:15:783
-1.287;2.053;-4.921;4.602;2.265;-8.356;4.088;3.32;3.778;2.588;3.511;-1.807;0.0;-15.1;-38.2;21.5;153.5;-4.8;-103.0;0.0;62.11;39.46892;-0.34094;69.4;NaN;;15.196;;0 / 18;7309;2021-10-27 17:41:15:833
-1.017;2.29;1.405;7.456;3.874;5.052;3.234;7.628;-1.288;2.388;2.957;-1.339;0.0;-15.0;-38.8;20.8;205.0;-20.2;-174.8;0.0;62.01;39.46892;-0.34094;69.4;NaN;;15.196;;0 / 18;7359;2021-10-27 17:41:15:883
1.795;0.615;0.986;3.208;-7.159;-5.89;1.188;8.489;1.963;1.959;3.295;-1.621;0.0;-15.2;-38.5;21.2;183.9;46.9;-151.4;0.0;62.01;39.46892;-0.34094;69.4;NaN;;15.196;;0 / 18;7409;2021-10-27 17:41:15:933
-0.354;10.802;4.746;9.103;0.397;3.63;0.347;0.909;-4.76;-1.816;-0.664;-0.285;0.0;-14.8;-38.2;23.2;142.8;14.7;-51.0;0.0;62.01;39.46892;-0.34094;69.4;NaN;;15.196;;0 / 18;7459;2021-10-27 17:41:15:983
1.414;23.613;-5.72;9.519;-0.551;-2.284;-1.575;-12.523;3.222;-0.109;-0.376;0.092;0.0;-15.2;-35.8;27.7;148.4;6.6;-97.3;0.0;62.01;39.46892;-0.34094;69.4;NaN;;15.196;;0 / 18;7509;2021-10-27 17:41:16:033
2.936;14.67;-11.877;7.417;-1.523;-6.23;-2.089;-6.248;11.691;0.708;-0.06;0.17;17.0;-15.7;-32.4;31.6;145.7;6.9;-103.3;0.0;62.01;39.46892;-0.34094;69.4;NaN;;15.196;;0 / 18;7559;2021-10-27 17:41:16:083
5.244;6.797;-11.898;4.391;-3.73;-7.939;-2.363;1.331;11.842;1.72;0.604;-0.022;17.0;-17.5;-26.6;36.1;177.6;22.3;-151.1;0.0;62.01;39.46892;-0.34094;69.4;NaN;;15.196;;0 / 18;7608;2021-10-27 17:41:16:132
1.771;0.88;-9.495;0.532;-1.647;-9.653;-1.342;7.682;8.555;3.328;2.45;-0.589;17.0;-18.9;-22.8;37.6;200.6;13.3;-169.8;0.0;62.01;39.46892;-0.34094;69.4;NaN;;15.196;;0 / 18;7659;2021-10-27 17:41:16:183
3.384;-1.117;-2.783;-2.744;-6.857;-6.455;-1.436;10.988;1.175;4.399;7.69;-5.034;17.0;-20.9;-20.6;37.1;227.7;20.9;158.5;0.0;58.37;39.46892;-0.34094;69.4;NaN;;15.196;;0 / 18;7709;2021-10-27 17:41:16:233
0.952;3.375;4.069;6.081;-1.575;7.532;-1.729;4.971;-9.024;4.289;7.67;-6.965;17.0;-21.7;-20.8;36.2;210.5;68.6;175.5;0.0;58.37;39.46892;-0.34094;69.4;NaN;;15.196;;0 / 18;7758;2021-10-27 17:41:16:282
-3.224;0.375;-6.884;-0.014;3.716;-9.074;1.282;4.979;-3.258;3.812;8.018;-7.419;17.0;-21.1;-23.5;34.9;247.0;-22.3;179.9;0.0;58.37;39.46892;-0.34094;69.4;NaN;;15.196;;0 / 18;7808;2021-10-27 17:41:16:332
7.24;17.133;22.864;6.953;-2.193;6.555;-10.518;-2.257;-34.435;4.346;1.455;-3.266;17.0;-19.8;-25.3;34.3;121.7;16.5;-8.4;0.0;58.37;39.46892;-0.34094;69.4;NaN;;15.196;;0 / 18;7858;2021-10-27 17:41:16:382
1.23;13.576;17.238;5.646;-0.215;8.016;0.329;-19.781;0.715;4.346;1.455;-3.266;0.0;-18.1;-27.2;34.4;142.1;2.5;-117.0;0.0;58.37;39.46892;-0.34094;69.4;NaN;;15.196;;0 / 18;7908;2021-10-27 17:41:16:432
1.026;17.308;-6.797;9.352;-0.527;-2.911;-3.089;-7.347;3.774;-1.125;-3.39;2.349;0.0;-17.6;-27.7;34.1;131.1;1.6;-96.8;0.0;58.37;39.46892;-0.34094;69.4;NaN;;15.196;;0 / 18;7958;2021-10-27 17:41:16:482
1.761;14.471;-4.342;9.558;-0.512;-2.15;-1.515;-13.386;-1.975;-1.524;-3.184;1.866;0.0;-17.9;-29.2;31.9;138.0;3.0;-102.7;0.0;61.26;39.46892;-0.34094;69.4;NaN;;15.196;;0 / 18;8009;2021-10-27 17:41:16:533
3.363;11.156;-2.783;9.256;-2.394;-2.184;-5.147;-2.112;0.4;-0.549;-2.173;1.668;0.0;-18.8;-30.4;29.6;148.4;19.5;-107.4;0.0;61.26;39.46892;-0.34094;69.4;NaN;;15.196;;0 / 18;8059;2021-10-27 17:41:16:583
-1.311;0.782;-3.64;1.393;4.013;-8.839;-1.037;5.878;0.033;-0.225;-1.561;1.43;0.0;-19.6;-31.9;26.6;160.0;1.8;-125.1;0.0;61.26;39.46892;-0.34094;69.4;NaN;;15.196;;0 / 18;8109;2021-10-27 17:41:16:633
0.246;2.159;-0.045;9.582;-2.078;-0.057;-0.454;7.342;-2.404;0.645;0.032;0.74;0.0;-20.3;-32.5;25.1;283.6;-51.1;-166.4;0.0;61.26;39.46892;-0.34094;69.4;NaN;;15.196;;0 / 18;8158;2021-10-27 17:41:16:682
5.0;1.984;4.488;1.413;-8.466;4.745;-2.954;9.075;-1.691;1.0;0.842;0.554;0.0;-21.2;-31.6;25.6;89.6;59.7;-16.6;0.0;61.26;39.46892;-0.34094;69.4;NaN;;15.196;;0 / 18;8209;2021-10-27 17:41:16:733
0.055;12.896;7.128;9.534;-2.289;-0.12;0.124;-2.401;-9.352;-3.507;-2.098;1.332;7.0;-22.1;-30.1;26.5;131.1;2.0;-58.2;0.0;61.26;39.46892;-0.34094;69.4;NaN;;15.196;;0 / 18;8259;2021-10-27 17:41:16:783
6.4;22.093;-6.285;9.213;-2.284;-2.471;-3.068;-12.748;6.618;-1.354;-1.399;1.325;7.0;-24.8;-25.5;28.9;150.0;9.8;-109.3;0.0;58.64;39.46892;-0.34094;69.4;NaN;;15.196;;0 / 18;8309;2021-10-27 17:41:16:833
2.235;16.808;-8.31;8.667;-1.116;-4.448;-0.861;-7.778;7.183;0.02;-0.086;0.568;7.0;-26.5;-22.0;30.5;145.3;11.6;-107.2;0.0;58.64;39.46892;-0.34094;69.4;NaN;;15.196;;0 / 18;8359;2021-10-27 17:41:16:883
6.656;4.102;-9.304;3.572;-5.32;-7.422;-4.226;3.756;8.256;0.563;0.366;0.301;7.0;-28.5;-17.4;31.4;199.3;32.9;-154.3;0.0;58.64;39.46892;-0.34094;69.4;NaN;;15.196;;0 / 18;8409;2021-10-27 17:41:16:933
0.856;-3.923;-7.178;-5.076;-0.915;-8.341;0.79;12.901;4.895;2.958;1.906;-0.193;7.0;-28.7;-16.2;31.6;236.6;15.4;170.1;0.0;58.64;39.46892;-0.34094;69.4;NaN;;15.196;;0 / 18;8459;2021-10-27 17:41:16:983
0.856;-3.647;-1.304;-9.227;-2.231;-2.456;0.532;13.531;-1.736;4.076;3.294;-1.392;7.0;-28.1;-16.8;31.0;251.6;11.9;117.0;0.0;58.64;39.46892;-0.34094;69.4;NaN;;15.196;;0 / 18;8509;2021-10-27 17:41:17:033
0.641;4.837;5.213;4.76;-2.035;8.332;-1.954;2.451;-14.61;4.076;3.294;-1.392;7.0;-26.6;-19.0;30.7;118.9;13.3;20.2;0.0;58.64;39.46892;-0.34094;69.4;NaN;;15.196;;0 / 18;8559;2021-10-27 17:41:17:083
0.38;1.567;-21.899;1.034;0.134;-9.754;2.114;1.173;-0.028;6.769;2.861;-6.085;7.0;-23.3;-22.8;31.3;221.0;-0.8;-173.9;0.0;58.64;39.46892;-0.34094;69.4;NaN;;15.196;;0 / 18;8608;2021-10-27 17:41:17:132
-0.452;25.389;5.359;8.255;-0.105;5.296;-4.965;1.717;-35.066;-7.434;-5.369;2.304;7.0;-20.9;-24.8;32.0;126.3;8.6;-14.9;0.0;61.45;39.46892;-0.34094;69.4;NaN;;15.196;;0 / 18;8659;2021-10-27 17:41:17:183
3.468;11.704;-11.307;7.125;-2.164;-6.383;-7.209;-3.872;-2.784;-3.369;-3.675;2.78;7.0;-18.2;-26.4;32.5;129.9;19.2;-80.6;0.0;61.45;39.46892;-0.34094;69.4;NaN;;15.196;;0 / 18;8708;2021-10-27 17:41:17:232
-0.198;23.393;-4.983;9.539;0.168;-2.265;-1.208;-14.519;-0.328;-2.136;-2.91;2.212;7.0;-16.9;-27.0;32.5;126.2;-2.0;-75.6;0.0;61.45;39.46892;-0.34094;69.4;NaN;;15.196;;0 / 18;8759;2021-10-27 17:41:17:283
1.091;12.49;-2.489;9.562;-1.116;-1.858;-1.764;-3.532;-0.823;-0.528;-1.71;1.383;7.0;-14.8;-29.4;30.5;135.9;-2.5;-99.1;0.0;61.45;39.46892;-0.34094;69.4;NaN;;15.196;;0 / 18;8809;2021-10-27 17:41:17:333
0.102;10.517;-1.125;9.701;0.364;-1.393;-1.475;-1.479;-2.253;-0.753;-1.764;1.1;7.0;-13.5;-31.3;28.6;138.4;8.8;-89.7;0.0;61.45;39.46892;-0.34094;69.4;NaN;;15.196;;0 / 18;8859;2021-10-27 17:41:17:383
-1.474;1.701;-2.451;6.163;4.966;-5.794;1.054;7.035;2.583;-0.242;-1.138;0.563;3.0;-12.0;-33.1;25.6;144.5;-30.4;-133.2;0.0;61.45;39.46892;-0.34094;69.4;NaN;;15.196;;0 / 18;8909;2021-10-27 17:41:17:433
1.419;1.783;-1.946;4.889;-5.425;-6.546;-1.681;7.524;-1.03;-0.141;-0.7;0.342;3.0;-11.3;-33.6;24.2;142.0;-5.6;-71.5;0.0;62.54;39.46892;-0.34094;69.4;NaN;;15.196;;0 / 18;8959;2021-10-27 17:41:17:483
3.544;-0.287;2.285;3.529;-8.078;4.295;-3.69;9.256;-4.614;0.004;-0.739;0.796;3.0;-10.4;-32.2;22.7;267.4;52.4;34.1;0.0;62.54;39.46892;-0.34094;69.4;NaN;;15.196;;0 / 18;9009;2021-10-27 17:41:17:533
-1.297;13.033;3.813;9.419;0.776;2.619;1.735;-2.173;-4.521;-3.476;-2.524;1.485;3.0;-10.1;-31.0;22.7;141.9;22.0;-77.3;0.0;62.54;39.46892;-0.34094;69.4;NaN;;15.196;;0 / 18;9059;2021-10-27 17:41:17:583
6.824;24.324;-3.494;9.313;-2.686;-1.499;-5.59;-14.857;2.766;-1.195;-1.638;0.841;3.0;-11.3;-28.0;24.1;143.2;13.4;-96.0;0.0;62.54;39.46892;-0.34094;69.4;NaN;;15.196;;0 / 18;9109;2021-10-27 17:41:17:633
2.233;14.629;-9.813;7.805;-1.13;-5.832;-1.507;-5.753;9.109;-0.852;-1.501;0.796;3.0;-12.7;-25.8;25.6;150.5;13.3;-116.7;0.0;62.54;39.46892;-0.34094;69.4;NaN;;15.196;;0 / 18;9159;2021-10-27 17:41:17:683
6.881;4.918;-13.033;2.921;-4.539;-8.188;-4.789;3.603;12.785;1.238;-0.01;0.315;3.0;-15.3;-21.6;27.4;182.5;18.2;-153.5;0.0;62.54;39.46892;-0.34094;69.4;NaN;;15.196;;0 / 18;9208;2021-10-27 17:41:17:732
1.306;0.236;-5.948;-0.139;-1.915;-9.615;0.47;9.517;3.54;2.114;-0.132;0.778;19.0;-17.0;-19.3;27.4;196.3;25.8;-167.3;0.0;62.54;39.46892;-0.34094;69.4;NaN;;15.196;;0 / 18;9259;2021-10-27 17:41:17:783
2.817;-3.542;-3.631;-5.65;-5.488;-5.842;-1.431;13.327;0.654;2.114;-0.132;0.778;19.0;-19.1;-17.5;27.1;240.4;34.0;136.0;0.0;60.35;39.46892;-0.34094;69.4;NaN;;15.196;;0 / 18;9309;2021-10-27 17:41:17:833
1.067;3.449;5.883;5.08;-1.288;8.294;-2.688;7.459;-7.774;5.215;7.35;-8.06;19.0;-20.3;-17.3;27.1;112.3;15.4;-21.3;0.0;60.35;39.46892;-0.34094;69.4;NaN;;15.196;;0 / 18;9358;2021-10-27 17:41:17:882
-2.568;1.668;-16.865;1.422;2.064;-9.486;1.746;2.241;-2.659;2.674;1.91;-2.348;19.0;-21.5;-18.6;27.7;95.4;-27.5;-122.1;0.0;60.35;39.46892;-0.34094;69.4;NaN;;15.196;;0 / 18;9408;2021-10-27 17:41:17:932
2.362;25.295;-5.012;3.223;-1.891;9.069;-4.361;11.335;-32.093;-10.498;-7.742;1.873;19.0;-21.6;-19.6;28.4;241.8;-2.4;124.4;0.0;60.35;39.46892;-0.34094;69.4;NaN;;15.196;;0 / 18;9459;2021-10-27 17:41:17:983
-2.678;9.012;7.145;7.326;-1.283;6.393;-7.821;-16.117;-12.803;-3.17;-4.116;3.413;19.0;-21.5;-21.4;28.9;119.4;7.5;-48.9;0.0;60.35;39.46892;-0.34094;69.4;NaN;;15.196;;0 / 18;9508;2021-10-27 17:41:18:032
-0.236;20.082;-4.325;9.395;-0.292;-2.801;-3.086;-10.945;1.849;-2.165;-3.115;3.042;0.0;-21.2;-22.9;28.9;141.7;2.5;-111.7;0.0;60.35;39.46892;-0.34094;69.4;NaN;;15.196;;0 / 18;9559;2021-10-27 17:41:18:083
0.399;14.799;-1.589;9.744;-0.464;-1.01;-0.876;-8.873;-2.814;-1.59;-2.43;2.11;0.0;-21.1;-25.4;26.9;131.1;-3.7;-92.8;0.0;63.04;39.46892;-0.34094;69.4;NaN;;15.196;;0 / 18;9609;2021-10-27 17:41:18:133
1.321;8.193;-1.79;9.567;-1.963;-0.895;-4.155;-0.713;-2.582;-0.93;-1.523;1.286;0.0;-20.7;-26.8;25.0;145.6;7.8;-104.0;0.0;63.04;39.46892;-0.34094;69.4;NaN;;15.196;;0 / 28;9659;2021-10-27 17:41:18:183
-2.12;1.79;-2.436;5.392;8.135;-0.953;1.199;7.966;-1.787;-0.434;-0.98;1.114;0.0;-19.8;-28.6;21.2;201.0;-31.8;-143.6;0.0;63.04;39.46892;-0.34094;69.4;NaN;;15.196;;0 / 28;9709;2021-10-27 17:41:18:233
-0.351;1.29;-1.44;6.416;2.725;-6.9;0.094;7.822;-0.968;-0.413;-0.544;0.667;0.0;-19.1;-29.2;19.7;120.5;-39.5;-114.3;0.0;63.04;39.46892;-0.34094;69.4;NaN;;15.196;;0 / 28;9759;2021-10-27 17:41:18:283
3.391;1.67;4.43;5.966;-4.448;6.388;-3.384;9.068;-6.223;-0.054;0.221;0.549;0.0;-18.0;-30.1;20.0;109.6;45.6;3.4;0.0;63.04;39.46892;-0.34094;69.4;NaN;;15.196;;0 / 28;9809;2021-10-27 17:41:18:333
3.41;17.981;-0.615;9.673;-1.59;-0.292;-1.556;-5.897;-2.098;-2.346;-1.901;1.128;0.0;-17.6;-30.0;21.5;142.1;25.4;-74.7;0.0;63.04;39.46892;-0.34094;69.4;NaN;;15.196;;0 / 28;9859;2021-10-27 17:41:18:383
3.784;22.713;-1.136;9.486;-1.662;-1.848;-3.548;-13.294;-0.098;-1.304;-1.729;1.333;44.0;-18.3;-28.0;24.8;146.1;9.8;-101.0;0.0;63.04;39.46892;-0.34094;69.4;NaN;;15.196;;0 / 28;9908;2021-10-27 17:41:18:432
4.076;16.386;-6.893;8.93;-1.978;-3.539;-2.966;-9.225;6.417;-0.01;-0.657;0.787;44.0;-18.8;-25.4;27.2;145.7;9.7;-108.0;0.0;56.69;39.46892;-0.34094;69.4;NaN;;15.196;;0 / 28;9959;2021-10-27 17:41:18:483
6.211;2.862;-14.036;1.001;-3.879;-8.954;-4.911;4.182;12.213;0.934;-0.2;0.713;44.0;-20.4;-21.7;30.5;176.3;20.2;-142.8;0.0;56.69;39.46892;-0.34094;69.4;NaN;;15.196;;0 / 28;10008;2021-10-27 17:41:18:532
1.268;-3.291;-5.555;-7.111;-1.317;-6.622;0.089;13.096;3.23;3.088;2.014;-0.056;44.0;-21.2;-20.1;31.4;219.2;16.1;175.9;0.0;56.69;39.46892;-0.34094;69.4;NaN;;15.196;;0 / 28;10059;2021-10-27 17:41:18:583
2.345;-2.498;5.459;-5.09;-3.874;7.432;-1.598;14.885;-0.899;6.302;6.639;-7.728;44.0;-20.9;-20.3;31.6;193.1;23.3;34.4;0.0;56.69;39.46892;-0.34094;69.4;NaN;;15.196;;0 / 28;10109;2021-10-27 17:41:18:633
-0.076;7.511;6.345;6.967;-0.378;6.891;-3.777;5.11;-17.159;8.162;5.44;-8.397;44.0;-20.1;-22.6;31.0;122.1;2.2;-45.3;0.0;56.69;39.46892;-0.34094;69.4;NaN;;15.196;;0 / 28;10159;2021-10-27 17:41:18:683
3.343;-1.656;-7.681;-3.682;-5.464;7.264;-3.127;3.394;10.723;0.831;3.597;-2.99;44.0;-18.3;-25.8;31.3;153.4;-5.5;-131.2;0.0;56.69;39.46892;-0.34094;69.4;NaN;;15.196;;0 / 28;10209;2021-10-27 17:41:18:733
-3.791;24.728;-17.753;7.609;1.456;-6.014;2.197;-15.884;3.892;-5.381;-7.387;4.079;4.0;-16.6;-27.3;31.6;138.4;7.3;-6.8;0.0;63.48;39.46892;-0.34094;69.4;NaN;;15.196;;0 / 28;10259;2021-10-27 17:41:18:783
1.139;13.878;-1.373;9.692;-1.12;0.977;-4.967;-8.443;-6.609;-2.304;-4.405;3.732;4.0;-15.8;-28.1;31.7;134.3;6.4;-94.5;0.0;63.48;39.46892;-0.34094;69.4;NaN;;15.196;;0 / 28;10309;2021-10-27 17:41:18:833
-0.306;17.722;-4.112;9.548;0.029;-2.241;-3.216;-11.507;0.506;-2.112;-3.968;2.955;4.0;-15.3;-29.2;31.6;137.1;1.9;-103.5;0.0;63.48;39.46892;-0.34094;69.4;NaN;;15.196;;0 / 28;10359;2021-10-27 17:41:18:883
0.299;12.322;-3.915;9.668;-0.354;-1.614;-2.54;-2.793;-1.222;-0.643;-2.469;2.173;4.0;-15.6;-30.9;29.9;139.4;-2.2;-104.7;0.0;63.48;39.46892;-0.34094;69.4;NaN;;15.196;;0 / 28;10409;2021-10-27 17:41:18:933
-0.588;5.524;-4.04;7.178;0.881;-6.622;-1.133;3.204;0.536;-0.643;-2.469;2.173;4.0;-15.5;-31.9;29.0;136.2;0.4;-86.8;0.0;63.48;39.46892;-0.34094;69.4;NaN;;15.196;;0 / 28;10459;2021-10-27 17:41:18:983
-1.488;2.115;-1.689;7.211;4.654;-4.745;0.066;7.302;-0.865;-0.643;-2.469;2.173;4.0;-16.4;-33.1;27.7;136.5;-28.3;-123.3;0.0;63.48;39.46892;-0.34094;69.4;NaN;;15.196;;0 / 28;10509;2021-10-27 17:41:19:033
1.565;-0.689;1.551;-3.347;-8.763;-2.854;-1.045;7.989;-2.88;0.135;-0.088;0.315;7.0;-17.3;-33.8;27.7;138.9;-21.9;-113.7;0.0;63.48;39.46892;-0.34094;69.4;NaN;;15.196;;0 / 28;10559;2021-10-27 17:41:19:083
4.164;8.775;2.994;9.582;-1.973;0.666;-4.603;-1.105;-3.019;-1.392;-1.946;1.416;7.0;-19.0;-33.3;29.0;132.9;20.7;-20.7;0.0;63.82;39.46892;-0.34094;69.4;NaN;;15.196;;0 / 28;10609;2021-10-27 17:41:19:133
4.602;22.062;0.117;9.534;-2.298;0.029;-3.091;-6.657;-1.482;-1.899;-2.105;1.629;7.0;-20.8;-31.6;31.1;139.8;8.7;-89.7;0.0;63.82;39.46892;-0.34094;69.4;NaN;;15.196;;0 / 28;10659;2021-10-27 17:41:19:183
3.904;24.089;-6.465;9.347;-1.446;-2.595;-4.224;-13.993;3.797;-0.8;-1.215;1.279;7.0;-24.6;-26.4;33.8;139.6;8.5;-105.5;0.0;63.82;39.46892;-0.34094;69.4;NaN;;15.196;;0 / 28;10709;2021-10-27 17:41:19:233
3.422;9.564;-11.235;5.641;-2.313;-7.681;-1.833;-5.981;7.761;0.804;0.156;0.681;7.0;-27.3;-22.6;35.2;160.0;10.3;-127.9;0.0;63.82;39.46892;-0.34094;69.4;NaN;;15.196;;0 / 28;10759;2021-10-27 17:41:19:283
3.959;1.563;-8.813;-0.33;-2.954;-9.347;-3.793;7.639;8.055;1.735;0.771;0.572;7.0;-29.9;-19.3;35.3;212.4;23.7;-167.1;0.0;63.82;39.46892;-0.34094;69.4;NaN;;15.196;;0 / 28;10808;2021-10-27 17:41:19:332
1.941;-5.991;-4.995;-7.149;-2.15;-6.359;-0.151;13.284;3.858;3.216;2.377;-0.308;7.0;-31.5;-17.2;33.2;245.1;10.6;154.1;0.0;63.82;39.46892;-0.34094;69.4;NaN;;15.196;;0 / 28;10859;2021-10-27 17:41:19:383
1.065;-0.043;5.586;3.481;-1.221;9.088;-1.596;9.689;-8.466;6.152;5.847;-6.629;0.0;-31.6;-18.1;30.8;253.9;17.8;119.9;0.0;59.72;39.46892;-0.34094;69.4;NaN;;15.196;;0 / 28;10909;2021-10-27 17:41:19:433
-1.527;4.655;-2.723;9.663;1.532;-0.67;-0.716;-0.029;-11.935;7.136;6.546;-9.161;0.0;-29.2;-22.3;27.7;123.1;-9.0;-94.0;0.0;59.72;39.46892;-0.34094;69.4;NaN;;15.196;;0 / 28;10959;2021-10-27 17:41:19:483
7.25;-1.85;21.43;-0.297;-2.619;9.448;-7.602;8.926;-20.471;2.15;2.805;-1.785;0.0;-27.0;-24.8;26.5;227.4;-0.1;179.7;0.0;59.72;39.46892;-0.34094;69.4;NaN;;15.196;;0 / 28;11009;2021-10-27 17:41:19:533
2.8;22.447;-0.854;9.39;-2.399;1.489;-6.751;-11.393;-7.08;-10.102;-4.389;1.504;0.0;-23.5;-27.4;26.0;128.2;8.2;-17.6;0.0;59.72;39.46892;-0.34094;69.4;NaN;;15.196;;0 / 28;11059;2021-10-27 17:41:19:583
1.06;19.024;-3.564;9.572;-0.493;-2.083;-2.089;-9.881;1.813;-10.102;-4.389;1.504;0.0;-21.6;-28.4;25.0;136.4;2.1;-83.6;0.0;59.72;39.46892;-0.34094;69.4;NaN;;15.196;;0 / 28;11109;2021-10-27 17:41:19:633
-0.421;17.356;-2.92;9.677;0.268;-1.575;-0.419;-8.438;1.273;-10.102;-4.389;1.504;0.0;-20.4;-29.4;23.6;145.9;0.8;-100.7;0.0;59.72;39.46892;-0.34094;69.4;NaN;;15.196;;0 / 28;11159;2021-10-27 17:41:19:683
2.178;11.463;-0.567;9.759;-0.828;-0.532;-1.111;-2.899;0.017;-0.398;-1.283;0.894;0.0;-19.5;-30.7;22.0;152.3;3.9;-103.2;0.0;59.72;39.46892;-0.34094;69.4;NaN;;15.196;;0 / 28;11209;2021-10-27 17:41:19:733
-1.701;1.603;-4.72;4.97;2.768;-7.987;1.558;3.695;1.722;-0.017;-0.626;0.396;21.0;-18.8;-31.9;19.1;151.9;3.2;-96.6;0.0;63.29;39.46892;-0.34094;69.4;NaN;;15.196;;0 / 28;11259;2021-10-27 17:41:19:783
-0.442;2.817;1.797;9.725;-0.335;-1.221;0.163;6.784;-3.301;0.375;0.456;-0.252;21.0;-18.5;-32.8;17.2;156.5;2.0;-97.2;0.0;63.29;39.46892;-0.34094;69.4;NaN;;15.196;;0 / 28;11309;2021-10-27 17:41:19:833
1.862;-1.227;1.122;-0.915;-5.861;7.81;-2.728;10.536;-5.312;0.706;1.385;-0.35;21.0;-18.3;-33.0;16.9;283.9;59.9;72.7;0.0;63.29;39.46892;-0.34094;69.4;NaN;;15.196;;0 / 28;11359;2021-10-27 17:41:19:883
0.15;12.987;1.352;9.376;-2.816;0.56;-3.491;1.967;-3.215;-1.653;-3.18;2.307;21.0;-17.9;-32.8;18.5;141.5;31.1;-57.9;0.0;63.29;39.46892;-0.34094;69.4;NaN;;15.196;;0 / 28;11409;2021-10-27 17:41:19:933
3.655;23.421;-1.177;9.701;-1.389;-0.33;-1.852;-13.013;-0.999;-2.097;-2.545;1.267;21.0;-18.5;-31.9;20.5;150.1;11.3;-86.9;0.0;63.29;39.46892;-0.34094;69.4;NaN;;15.196;;0 / 28;11459;2021-10-27 17:41:19:983
2.848;20.506;-8.258;8.538;-0.924;-4.736;-1.548;-9.713;7.864;-0.507;-1.07;0.8;21.0;-20.6;-29.2;24.1;155.4;10.1;-110.1;0.0;63.29;39.46892;-0.34094;69.4;NaN;;15.196;;0 / 28;11509;2021-10-27 17:41:20:033
5.072;6.151;-12.032;5.329;-2.543;-7.834;-1.297;-2.59;8.973;0.96;0.368;0.321;71.0;-22.4;-27.0;26.5;184.9;15.0;-145.8;0.0;54.5;39.46892;-0.34094;69.4;NaN;;15.196;;0 / 28;11559;2021-10-27 17:41:20:083
1.567;-0.531;-5.754;-4.448;-1.652;-8.581;0.253;11.144;3.111;1.344;0.431;0.501;71.0;-24.5;-24.1;28.0;203.1;30.6;-165.8;0.0;54.5;39.46892;-0.34094;69.4;NaN;;15.196;;0 / 28;11609;2021-10-27 17:41:20:133
3.841;-6.608;-1.582;-9.266;-3.165;0.579;-3.555;16.7;0.03;5.269;7.308;-4.886;71.0;-25.1;-24.0;28.3;238.1;9.9;128.8;0.0;54.5;39.46892;-0.34094;69.4;NaN;;15.196;;0 / 28;11659;2021-10-27 17:41:20:183
0.596;7.027;7.18;5.928;-0.618;7.791;-1.573;7.832;-16.023;5.269;7.308;-4.886;71.0;-25.5;-25.6;27.2;124.6;3.6;-37.3;0.0;54.5;39.46892;-0.34094;69.4;NaN;;15.196;;0 / 28;11709;2021-10-27 17:41:20:233
0.174;1.831;-37.01;0.211;-0.091;-9.802;1.843;-0.704;4.364;5.269;7.308;-4.886;71.0;-24.5;-28.0;27.1;137.6;4.3;-89.7;0.0;54.5;39.46892;-0.34094;69.4;NaN;;15.196;;0 / 28;11759;2021-10-27 17:41:20:283
-2.779;20.496;-0.89;9.088;1.298;-3.452;-7.919;1.217;-54.75;-10.862;-8.904;2.19;71.0;-23.0;-30.2;27.7;151.6;18.6;26.2;0.0;54.5;39.46892;-0.34094;69.4;NaN;;15.196;;0 / 28;11809;2021-10-27 17:41:20:333
-1.05;13.33;1.261;9.773;0.316;0.737;-0.878;-5.779;-7.153;-3.173;-4.638;3.145;71.0;-22.2;-31.2;28.3;153.4;2.8;-114.6;0.0;54.5;39.46892;-0.34094;69.4;NaN;;15.196;;0 / 28;11858;2021-10-27 17:41:20:382
0.246;18.916;-2.793;9.72;-0.153;-1.288;-2.744;-10.097;0.823;-2.105;-3.405;2.708;0.0;-21.6;-32.2;28.4;142.5;0.9;-97.5;0.0;63.83;39.46892;-0.34094;69.4;NaN;;15.196;;0 / 28;11908;2021-10-27 17:41:20:432
1.572;13.543;-4.21;9.534;-0.546;-2.241;-1.757;-9.17;-1.778;-0.767;-1.917;1.703;0.0;-21.0;-33.3;26.8;148.0;3.2;-103.2;0.0;63.83;39.46892;-0.34094;69.4;NaN;;15.196;;0 / 28;11958;2021-10-27 17:41:20:482
-1.491;7.688;-2.846;9.328;1.537;-2.619;-2.194;-1.291;-2.558;-0.861;-1.89;1.429;0.0;-20.8;-35.0;23.8;145.3;4.1;-91.3;0.0;63.83;39.46892;-0.34094;69.4;NaN;;15.196;;0 / 28;12008;2021-10-27 17:41:20:532
-2.199;1.85;-1.335;6.646;7.01;1.695;1.007;7.522;-0.637;-0.052;-0.588;0.653;0.0;-20.9;-35.6;22.1;180.6;-12.5;-138.1;0.0;63.83;39.46892;-0.34094;69.4;NaN;;15.196;;0 / 28;12059;2021-10-27 17:41:20:583
1.417;1.199;-1.438;3.63;-7.149;-5.65;-0.06;6.955;-2.295;0.131;0.193;0.071;0.0;-21.1;-35.8;20.5;188.6;46.8;-147.3;0.0;63.83;39.46892;-0.34094;69.4;NaN;;15.196;;0 / 28;12109;2021-10-27 17:41:20:633
4.035;2.223;4.421;4.046;-6.345;6.287;-4.774;7.637;-7.135;-0.419;-0.347;0.713;0.0;-20.6;-35.8;20.6;121.0;42.7;-6.8;0.0;63.83;39.46892;-0.34094;69.4;NaN;;15.196;;0 / 28;12159;2021-10-27 17:41:20:683
2.733;18.938;1.175;9.663;-1.642;0.393;-1.571;-2.342;-2.3;-2.769;-3.25;1.988;0.0;-20.5;-34.5;22.7;152.3;21.1;-92.5;0.0;62.82;39.46892;-0.34094;69.4;NaN;;15.196;;0 / 28;12209;2021-10-27 17:41:20:733
5.89;22.358;-3.578;9.62;-1.877;-0.35;-1.84;-12.969;-0.572;-1.107;-1.818;1.346;53.0;-20.6;-32.5;25.1;146.5;5.2;-90.8;0.0;62.82;39.46892;-0.34094;69.4;NaN;;15.196;;0 / 28;12258;2021-10-27 17:41:20:782
1.694;11.408;-9.801;6.804;-0.972;-6.996;-0.9;-2.823;8.49;-0.021;-0.713;0.888;53.0;-21.8;-28.6;28.9;156.7;8.1;-119.5;0.0;62.82;39.46892;-0.34094;69.4;NaN;;15.196;;0 / 28;12309;2021-10-27 17:41:20:833
4.411;3.066;-9.837;2.643;-3.783;-8.653;-3.461;6.427;9.191;0.529;-0.076;0.596;53.0;-22.6;-25.9;31.1;198.7;19.7;-162.3;0.0;62.82;39.46892;-0.34094;69.4;NaN;;15.196;;0 / 28;12359;2021-10-27 17:41:20:883
1.598;-2.326;-4.713;-5.885;-2.691;-7.369;-0.471;10.438;2.888;0.529;-0.076;0.596;53.0;-23.9;-22.9;33.1;208.3;20.4;-170.9;0.0;62.82;39.46892;-0.34094;69.4;NaN;;15.196;;0 / 28;12409;2021-10-27 17:41:20:933
2.355;-2.068;2.003;-4.348;-5.612;6.766;-2.275;12.028;-4.585;5.805;6.741;-6.489;53.0;-24.5;-22.4;33.2;241.4;13.8;130.9;0.0;62.82;39.46892;-0.34094;69.4;NaN;;15.196;;0 / 28;12458;2021-10-27 17:41:20:982
-1.316;7.623;1.352;9.649;1.566;0.838;-1.861;1.686;-14.61;7.576;6.59;-8.171;53.0;-24.0;-24.7;32.0;122.0;5.6;-34.3;0.0;62.82;39.46892;-0.34094;69.4;NaN;;15.196;;0 / 28;12508;2021-10-27 17:41:21:032
4.547;-2.75;-15.168;-4.353;-7.982;-3.673;-2.547;6.929;26.74;3.431;3.717;-3.558;0.0;-22.4;-27.0;31.7;218.2;2.7;179.2;0.0;61.68;39.46892;-0.34094;69.4;NaN;;15.196;;0 / 28;12559;2021-10-27 17:41:21:083
-5.079;27.988;-19.41;9.031;0.785;-3.745;-1.718;-10.859;-16.862;-6.107;-5.305;2.159;0.0;-20.2;-28.9;32.2;127.2;1.0;-58.0;0.0;61.68;39.46892;-0.34094;69.4;NaN;;15.196;;0 / 28;12609;2021-10-27 17:41:21:133
2.008;15.008;-3.693;9.448;-1.499;-2.174;-1.963;-4.951;0.322;-1.589;-2.917;1.73;0.0;-19.2;-29.5;33.1;131.6;10.2;-80.0;0.0;61.68;39.46892;-0.34094;69.4;NaN;;15.196;;0 / 28;12659;2021-10-27 17:41:21:183
-1.022;18.84;-0.636;9.792;0.388;-0.354;-1.134;-10.091;2.281;-1.112;-2.454;1.645;0.0;-19.2;-30.3;33.4;132.1;-2.3;-92.1;0.0;61.68;39.46892;-0.34094;69.4;NaN;;15.196;;0 / 28;12709;2021-10-27 17:41:21:233
0.564;11.762;-3.377;9.428;-0.694;-2.6;-1.215;-2.644;1.51;-0.007;-1.326;0.746;0.0;-19.3;-31.8;32.5;140.2;-0.9;-106.5;0.0;61.68;39.46892;-0.34094;69.4;NaN;;15.196;;0 / 28;12758;2021-10-27 17:41:21:282
-2.171;4.842;-4.433;7.374;3.357;-5.521;0.664;0.819;-2.279;-0.02;-0.917;0.389;0.0;-20.6;-33.7;30.4;133.7;-7.3;-87.7;0.0;61.68;39.46892;-0.34094;69.4;NaN;;15.196;;0 / 28;12809;2021-10-27 17:41:21:333
-1.886;2.577;-1.735;7.025;5.54;-4.013;0.891;7.134;0.496;0.303;-0.164;-0.202;0.0;-22.1;-34.6;29.2;187.4;-15.2;-149.7;0.0;63.51;39.46892;-0.34094;69.4;NaN;;15.196;;0 / 28;12859;2021-10-27 17:41:21:383
0.253;0.055;0.478;0.0;-7.963;5.722;1.371;8.411;-2.447;0.452;0.507;-0.962;23.0;-24.8;-35.0;27.7;84.7;54.3;0.0;0.0;63.51;39.46892;-0.34094;69.4;NaN;;15.196;;0 / 28;12909;2021-10-27 17:41:21:433
4.478;5.972;1.668;7.982;-5.607;1.015;-5.298;4.182;-4.514;-0.255;0.147;-0.88;23.0;-26.6;-35.0;27.8;121.8;34.7;-32.0;0.0;63.51;39.46892;-0.34094;69.4;NaN;;15.196;;0 / 28;12959;2021-10-27 17:41:21:483
2.793;19.783;3.106;9.582;-1.25;1.681;-4.25;-7.943;-1.381;-1.569;-1.733;1.81;23.0;-29.1;-33.4;27.8;153.3;16.0;-102.9;0.0;63.51;39.46892;-0.34094;69.4;NaN;;15.196;;0 / 28;13009;2021-10-27 17:41:21:533
3.899;24.056;-10.84;8.758;-1.417;-4.18;-3.348;-14.215;9.131;-0.651;-0.654;1.259;23.0;-30.5;-31.5;28.4;137.2;4.5;-81.0;0.0;63.51;39.46892;-0.34094;69.4;NaN;;15.196;;0 / 28;13059;2021-10-27 17:41:21:583
2.259;14.091;-9.292;7.843;-2.567;-5.296;-0.018;-6.447;9.377;0.573;0.626;0.559;23.0;-31.5;-26.9;29.5;170.7;15.2;-124.0;0.0;63.51;39.46892;-0.34094;69.4;NaN;;15.196;;0 / 28;13109;2021-10-27 17:41:21:633
3.961;1.991;-9.086;1.657;-3.591;-8.973;-3.365;7.335;7.694;1.486;1.381;0.281;23.0;-31.9;-24.7;30.1;208.1;26.2;-161.8;0.0;55.79;39.46892;-0.34094;69.4;NaN;;15.196;;0 / 28;13158;2021-10-27 17:41:21:682
-0.555;-4.208;-5.859;-6.043;0.517;-7.709;1.276;11.447;3.63;3.054;3.108;-0.849;23.0;-30.7;-23.2;30.1;240.6;-3.4;161.8;0.0;55.79;39.46892;-0.34094;69.4;NaN;;15.196;;0 / 28;13208;2021-10-27 17:41:21:732
2.455;-3.76;1.768;-6.311;-5.037;5.564;-2.422;12.766;-6.001;6.153;5.604;-5.424;5.0;-29.4;-23.5;29.6;243.0;9.6;122.8;0.0;55.79;39.46892;-0.34094;69.4;NaN;;15.196;;0 / 28;13259;2021-10-27 17:41:21:783
2.211;8.195;4.938;8.643;-2.006;4.175;-3.783;1.164;-14.598;7.672;4.882;-6.601;5.0;-25.8;-26.1;29.5;125.7;11.8;-64.2;0.0;55.79;39.46892;-0.34094;69.4;NaN;;15.196;;0 / 28;13309;2021-10-27 17:41:21:833
4.021;3.238;-20.142;2.806;-2.112;-9.155;-2.889;4.268;13.031;-4.531;-7.486;10.083;5.0;-23.2;-27.7;29.8;209.4;7.4;-171.0;0.0;55.79;39.46892;-0.34094;69.4;NaN;;15.196;;0 / 28;13358;2021-10-27 17:41:21:882
-7.353;24.348;-8.937;8.854;2.883;-3.074;1.519;-9.913;-20.931;-5.257;-3.097;1.627;5.0;-19.9;-29.4;31.3;136.2;-6.4;-19.3;0.0;55.79;39.46892;-0.34094;69.4;NaN;;15.196;;0 / 28;13408;2021-10-27 17:41:21:932
7.867;15.917;-17.179;6.0;-3.175;-7.077;-9.237;-5.443;11.469;-2.021;-2.113;1.256;5.0;-18.3;-30.0;31.7;129.5;1.9;-54.0;0.0;55.79;39.46892;-0.34094;69.4;NaN;;15.196;;0 / 28;13459;2021-10-27 17:41:21:983
1.601;15.738;2.281;9.495;-0.982;2.251;-3.957;-6.417;-7.168;-2.069;-2.109;0.958;5.0;-16.8;-30.4;32.8;130.5;5.7;-76.7;0.0;63.25;39.46892;-0.34094;69.4;NaN;;15.196;;0 / 28;13508;2021-10-27 17:41:22:032
-2.678;18.689;3.475;9.629;0.752;1.709;2.865;-9.365;-5.434;-0.951;-1.679;0.842;0.0;-15.3;-31.2;32.6;130.1;-7.5;-79.4;0.0;63.25;39.46892;-0.34094;69.4;NaN;;15.196;;0 / 28;13558;2021-10-27 17:41:22:082
1.8;4.629;-0.603;9.146;-3.342;-1.173;-2.247;0.719;-1.104;-1.037;-1.906;1.078;0.0;-13.1;-32.5;33.5;137.1;15.3;-92.3;0.0;63.25;39.46892;-0.34094;69.4;NaN;;15.196;;0 / 28;13609;2021-10-27 17:41:22:133
0.268;0.574;2.788;1.638;-0.962;9.62;-0.042;9.453;-3.697;-1.259;-1.327;-0.011;0.0;-10.3;-33.6;34.4;133.4;22.2;-82.5;0.0;63.25;39.46892;-0.34094;69.4;NaN;;15.196;;0 / 28;13659;2021-10-27 17:41:22:183
-0.888;0.517;4.444;0.474;2.179;9.548;0.351;7.948;-3.584;-1.259;-1.327;-0.011;0.0;-5.3;-33.7;36.7;170.6;-12.8;-2.8;0.0;63.25;39.46892;-0.34094;69.4;NaN;;15.196;;0 / 28;13708;2021-10-27 17:41:22:232
-5.187;1.043;-1.043;1.666;9.534;-1.585;4.08;9.375;1.997;-5.199;-0.743;-2.367;0.0;-1.4;-32.8;38.8;197.1;-46.5;24.1;0.0;63.25;39.46892;-0.34094;69.4;NaN;;15.196;;0 / 28;13759;2021-10-27 17:41:22:283
0.622;9.912;-6.398;7.618;-2.701;-5.555;4.088;3.103;6.36;-1.512;0.464;-4.319;0.0;4.4;-28.8;42.2;98.2;-49.3;-121.5;0.0;63.25;39.46892;-0.34094;69.4;NaN;;15.196;;0 / 28;13809;2021-10-27 17:41:22:333
6.948;16.966;-15.355;7.939;-2.035;-5.387;-5.037;-8.338;12.014;3.495;-0.295;0.289;0.0;7.3;-25.4;44.5;129.7;18.2;-126.6;0.0;60.78;39.46892;-0.34094;69.4;NaN;;15.196;;0 / 28;13859;2021-10-27 17:41:22:383
6.855;10.242;-6.233;6.881;-4.63;-5.234;-7.793;-1.23;11.726;3.818;-3.525;2.351;0.0;10.9;-20.9;46.6;122.3;28.2;-127.3;0.0;60.78;39.46892;-0.34094;69.4;NaN;;15.196;;0 / 28;13909;2021-10-27 17:41:22:433
8.188;16.674;-15.637;6.833;-3.414;-6.153;-7.941;-6.995;14.817;2.116;-4.133;3.346;0.0;12.2;-19.4;47.0;122.2;19.6;-135.1;0.0;60.78;39.46892;-0.34094;69.4;NaN;;15.196;;0 / 28;13959;2021-10-27 17:41:22:483
4.875;9.39;-9.763;6.273;-3.299;-6.78;-4.656;-1.714;8.035;1.697;-3.396;2.95;0.0;14.2;-19.0;47.2;119.7;21.4;-131.7;0.0;60.78;39.46892;-0.34094;69.4;NaN;;15.196;;0 / 28;14009;2021-10-27 17:41:22:533
3.061;4.638;-3.667;7.13;-4.281;-5.195;-1.031;4.2;0.931;1.181;-2.493;2.461;0.0;15.4;-19.9;47.0;126.0;22.0;-144.6;0.0;60.78;39.46892;-0.34094;69.4;NaN;;15.196;;0 / 28;14059;2021-10-27 17:41:22:583
3.609;0.675;0.052;1.939;-9.582;0.776;0.356;7.825;-2.365;0.949;-2.113;2.141;0.0;17.2;-23.2;44.8;52.9;77.7;-68.2;0.0;60.78;39.46892;-0.34094;69.4;NaN;;15.196;;0 / 28;14109;2021-10-27 17:41:22:633
0.181;2.47;0.397;9.649;0.737;-1.599;3.162;5.606;-4.623;0.059;-1.154;2.126;0.0;19.0;-26.2;42.1;100.1;30.7;-69.9;0.0;59.05;39.46892;-0.34094;69.4;NaN;;15.196;;0 / 28;14159;2021-10-27 17:41:22:683
0.686;-3.966;-6.312;-5.904;-0.876;-7.786;3.748;10.654;1.895;-0.211;-0.876;2.009;0.0;22.0;-30.7;37.0;169.3;-0.8;158.7;0.0;59.05;39.46892;-0.34094;69.4;NaN;;15.196;;0 / 28;14209;2021-10-27 17:41:22:733
-1.986;12.726;10.481;8.897;1.69;3.768;8.814;-7.902;-8.857;-0.211;-0.876;2.009;0.0;24.7;-33.4;32.9;232.6;2.0;56.5;0.0;59.05;39.46892;-0.34094;69.4;NaN;;15.196;;0 / 28;14259;2021-10-27 17:41:22:783
-1.201;9.004;-1.455;9.783;0.656;0.278;1.59;-14.065;-6.273;-0.211;-0.876;2.009;0.0;27.5;-37.1;26.0;147.0;-3.8;-88.4;0.0;59.05;39.46892;-0.34094;69.4;NaN;;15.196;;0 / 28;14308;2021-10-27 17:41:22:832
-5.177;12.279;-0.758;9.155;3.486;-0.479;9.137;3.509;2.126;-0.988;-0.29;-2.607;0.0;28.9;-38.8;20.8;144.1;-35.4;-113.2;0.0;59.05;39.46892;-0.34094;69.4;NaN;;15.196;;0 / 28;14359;2021-10-27 17:41:22:883
0.031;17.583;-4.6;9.577;0.225;-2.097;4.081;-14.598;-0.634;-0.322;-1.53;-1.853;0.0;29.8;-40.3;13.6;156.0;-0.1;-93.6;0.0;59.05;39.46892;-0.34094;69.4;NaN;;15.196;;0 / 28;14408;2021-10-27 17:41:22:932
4.555;14.56;-3.312;9.668;-1.652;0.11;-2.594;-4.992;2.059;0.085;-2.931;-0.749;0.0;30.4;-40.0;9.2;149.4;9.1;-111.3;0.0;59.05;39.46892;-0.34094;69.4;NaN;;15.196;;0 / 28;14459;2021-10-27 17:41:22:983
-2.029;3.442;-4.784;1.441;3.95;-8.859;3.777;0.213;1.058;-0.367;-2.729;-0.333;0.0;30.6;-39.8;3.4;140.3;-23.8;-170.8;0.0;60.4;39.46892;-0.34094;69.4;NaN;;15.196;;0 / 28;14509;2021-10-27 17:41:23:033
-1.034;1.993;-1.807;7.542;3.089;-5.454;2.521;7.701;-0.297;0.381;-3.943;0.77;0.0;30.7;-39.7;0.7;139.3;-22.4;176.5;0.0;60.4;39.46892;-0.34094;69.4;NaN;;15.196;;0 / 28;14559;2021-10-27 17:41:23:083
0.095;2.07;2.087;7.772;0.33;5.971;2.052;6.805;-2.81;0.405;-3.898;0.472;0.0;29.8;-40.2;-1.6;172.1;-19.8;-104.6;0.0;60.4;39.46892;-0.34094;69.4;NaN;;15.196;;0 / 28;14609;2021-10-27 17:41:23:133
2.597;7.425;3.968;8.49;-2.456;4.252;-2.233;3.784;-6.59;-1.704;-0.597;-0.538;0.0;29.9;-40.9;-1.9;218.7;16.5;-20.3;0.0;60.4;39.46892;-0.34094;69.4;NaN;;15.196;;0 / 28;14659;2021-10-27 17:41:23:183
-0.186;24.498;-4.665;9.61;0.057;-1.963;0.017;-9.035;-0.719;-2.323;0.505;0.189;0.0;30.3;-42.6;0.8;170.8;-0.3;-101.5;0.0;60.4;39.46892;-0.34094;69.4;NaN;;15.196;;0 / 28;14708;2021-10-27 17:41:23:232
0.313;15.194;-11.994;6.057;0.053;-7.714;0.218;-6.366;10.21;-0.37;-1.226;0.229;0.0;31.0;-43.9;4.9;153.2;1.5;-125.1;0.0;60.4;39.46892;-0.34094;69.4;NaN;;15.196;;0 / 28;14758;2021-10-27 17:41:23:282
5.469;6.345;-11.709;4.228;-4.113;-7.839;-2.639;2.972;10.807;0.386;-1.983;0.369;0.0;31.8;-44.7;13.9;142.4;4.6;-151.9;0.0;54.91;39.46892;-0.34094;69.4;NaN;;15.196;;0 / 28;14809;2021-10-27 17:41:23:333
1.716;1.603;-6.979;1.834;-2.145;-9.39;-0.832;7.426;4.83;2.018;-1.953;1.312;0.0;32.3;-44.7;19.6;137.1;32.2;-154.4;0.0;54.91;39.46892;-0.34094;69.4;NaN;;15.196;;0 / 28;14859;2021-10-27 17:41:23:383
4.437;-5.124;-1.515;-6.78;-5.641;-4.29;-1.43;12.938;0.634;2.018;-1.953;1.312;11.0;33.4;-44.2;22.9;181.7;35.1;122.3;0.0;54.91;39.46892;-0.34094;69.4;NaN;;15.196;;0 / 28;14909;2021-10-27 17:41:23:433
-0.701;-0.332;6.221;0.105;1.149;9.74;1.394;10.931;-8.207;2.018;-1.953;1.312;11.0;34.3;-44.7;21.2;221.1;15.7;41.3;0.0;54.91;39.46892;-0.34094;69.4;NaN;;15.196;;0 / 28;14959;2021-10-27 17:41:23:483
-2.836;5.268;-7.937;6.096;3.261;-6.958;6.721;0.585;-6.866;1.647;3.363;4.578;11.0;35.2;-44.8;14.8;186.3;-4.2;-56.3;0.0;54.91;39.46892;-0.34094;69.4;NaN;;15.196;;0 / 28;15009;2021-10-27 17:41:23:533
5.198;11.728;23.337;2.734;-3.601;8.701;-0.223;1.71;13.007;1.114;-0.968;0.483;11.0;34.5;-44.9;10.6;141.1;4.3;-170.3;0.0;54.91;39.46892;-0.34094;69.4;NaN;;15.196;;0 / 28;15059;2021-10-27 17:41:23:583
-0.552;13.311;-3.317;8.796;-0.982;4.219;6.393;-7.461;-9.861;-1.935;2.496;-3.257;11.0;32.2;-44.8;6.2;191.4;5.7;-64.4;0.0;54.91;39.46892;-0.34094;69.4;NaN;;15.196;;0 / 28;15109;2021-10-27 17:41:23:633
1.895;24.968;-1.014;9.749;-1.01;-0.316;2.936;-9.315;1.636;-1.02;-0.118;-2.007;11.0;30.1;-44.8;4.3;173.2;5.9;-91.9;0.0;63.08;39.46892;-0.34094;69.4;NaN;;15.196;;0 / 28;15158;2021-10-27 17:41:23:682
0.342;17.179;-5.555;9.275;-0.354;-3.17;4.173;-9.966;1.839;-1.523;0.708;-1.937;11.0;27.7;-43.1;0.4;171.8;-1.4;-99.2;0.0;63.08;39.46892;-0.34094;69.4;NaN;;15.196;;0 / 28;15208;2021-10-27 17:41:23:732
0.536;12.387;-0.179;9.768;-0.34;0.804;0.984;-4.44;3.064;-0.588;-1.104;-1.128;3.0;26.3;-42.1;-2.6;167.0;7.3;-111.8;0.0;63.08;39.46892;-0.34094;69.4;NaN;;15.196;;0 / 28;15259;2021-10-27 17:41:23:783
-2.793;1.079;-3.317;2.389;6.455;-6.986;4.916;8.201;1.441;-0.531;-1.303;-0.921;3.0;24.8;-40.5;-6.8;156.1;-22.9;-153.6;0.0;63.08;39.46892;-0.34094;69.4;NaN;;15.196;;0 / 28;15309;2021-10-27 17:41:23:833
-0.981;1.95;-0.821;8.59;3.577;-3.103;3.248;7.456;-1.088;0.321;-3.013;-0.456;3.0;23.8;-39.9;-8.9;170.6;-35.4;-128.2;0.0;63.08;39.46892;-0.34094;69.4;NaN;;15.196;;0 / 28;15359;2021-10-27 17:41:23:883
2.752;-1.464;1.586;-1.154;-7.863;5.746;-2.36;10.361;-5.178;0.309;-3.191;-0.553;3.0;22.6;-39.5;-9.5;140.3;70.7;124.3;0.0;63.08;39.46892;-0.34094;69.4;NaN;;15.196;;0 / 28;15409;2021-10-27 17:41:23:933
3.468;6.654;0.72;9.448;-2.591;0.498;-2.286;3.177;-4.028;-1.396;1.139;1.744;3.0;22.6;-40.0;-8.3;222.2;45.3;-29.4;0.0;61.77;39.46892;-0.34094;69.4;NaN;;15.196;;0 / 28;15459;2021-10-27 17:41:23:983
4.212;23.333;-0.895;9.701;-1.35;-0.493;-0.805;-11.332;-3.323;-1.827;1.6;0.797;3.0;23.2;-41.5;-3.1;182.7;7.9;-92.9;0.0;61.77;39.46892;-0.34094;69.4;NaN;;15.196;;0 / 28;15508;2021-10-27 17:41:24:032
5.505;20.503;-8.021;8.768;-2.26;-3.768;-3.765;-11.556;6.141;-1.827;1.6;0.797;26.0;23.4;-43.0;1.9;167.2;15.4;-105.7;0.0;61.77;39.46892;-0.34094;69.4;NaN;;15.196;;0 / 28;15558;2021-10-27 17:41:24:082
3.071;7.633;-15.455;4.099;-2.002;-8.681;-0.197;-0.148;13.949;0.476;-0.659;-0.074;26.0;23.5;-43.7;8.3;151.7;4.5;-144.3;0.0;61.77;39.46892;-0.34094;69.4;NaN;;15.196;;0 / 28;15609;2021-10-27 17:41:24:133
3.415;1.424;-8.801;1.46;-3.237;-9.141;-4.299;6.398;8.707;1.765;-0.921;0.581;26.0;23.1;-43.1;17.6;148.0;20.2;-158.1;0.0;61.77;39.46892;-0.34094;69.4;NaN;;15.196;;0 / 28;15659;2021-10-27 17:41:24:183
2.372;-5.747;-3.013;-8.327;-3.673;-3.654;1.403;12.297;1.815;2.992;-1.383;1.301;26.0;23.0;-41.5;23.9;194.2;22.0;113.7;0.0;61.77;39.46892;-0.34094;69.4;NaN;;15.196;;0 / 28;15709;2021-10-27 17:41:24:233
0.251;-1.527;5.021;-1.848;-0.091;9.629;1.714;10.509;-7.114;4.785;-0.274;2.859;26.0;23.1;-41.4;23.9;205.5;39.4;93.6;0.0;61.77;39.46892;-0.34094;69.4;NaN;;15.196;;0 / 28;15758;2021-10-27 17:41:24:282
-1.95;9.88;4.48;9.165;1.25;3.261;7.973;-5.568;-10.24;-1.63;6.675;4.071;26.0;24.1;-42.5;19.3;202.0;2.3;-17.6;0.0;61.3;39.46892;-0.34094;69.4;NaN;;15.196;;0 / 28;15808;2021-10-27 17:41:24:332
7.863;-3.274;35.428;-2.523;-3.457;8.825;0.555;9.315;-19.814;-1.63;6.675;4.071;26.0;25.0;-43.4;15.5;145.5;-3.2;-135.3;0.0;61.3;39.46892;-0.34094;69.4;NaN;;15.196;;0 / 28;15858;2021-10-27 17:41:24:382
6.063;22.612;-3.813;9.606;-1.781;-0.867;11.697;-14.581;11.846;-1.63;6.675;4.071;0.0;27.0;-43.8;10.3;156.4;1.4;-111.0;0.0;61.3;39.46892;-0.34094;69.4;NaN;;15.196;;0 / 28;15909;2021-10-27 17:41:24:433
1.84;20.925;-3.365;9.711;-0.953;-1.01;4.203;-11.239;-1.973;-1.208;4.084;-3.618;0.0;27.4;-43.8;8.0;168.6;4.8;-90.9;0.0;61.3;39.46892;-0.34094;69.4;NaN;;15.196;;0 / 28;15959;2021-10-27 17:41:24:483
-0.15;16.834;-5.641;9.203;-0.024;-3.395;4.899;-11.051;2.042;-1.206;1.953;-2.47;0.0;28.2;-43.6;4.0;167.4;0.8;-97.7;0.0;61.3;39.46892;-0.34094;69.4;NaN;;15.196;;0 / 28;16009;2021-10-27 17:41:24:533
1.8;11.956;0.193;9.692;-1.494;0.01;2.703;-3.161;-1.424;-0.248;-1.155;-1.755;0.0;28.1;-43.0;1.3;164.1;-0.1;-111.8;0.0;61.3;39.46892;-0.34094;69.4;NaN;;15.196;;0 / 28;16059;2021-10-27 17:41:24:583
-1.704;3.949;-6.675;4.626;4.468;-7.403;3.769;4.048;3.224;-0.109;-1.783;-1.38;0.0;28.1;-42.2;-3.2;153.9;-27.1;-148.0;0.0;63.85;39.46892;-0.34094;69.4;NaN;;15.196;;0 / 28;16109;2021-10-27 17:41:24:633
0.021;2.147;2.163;7.36;-0.785;6.436;5.366;7.165;-3.003;0.143;-2.709;-1.057;0.0;28.0;-41.7;-5.5;208.8;4.6;-48.8;0.0;63.85;39.46892;-0.34094;69.4;NaN;;15.196;;0 / 28;16158;2021-10-27 17:41:24:682
3.094;0.481;4.358;1.58;-5.392;8.04;-1.336;9.273;-6.531;0.368;-2.376;-0.091;0.0;27.7;-41.2;-6.1;141.9;22.4;179.2;0.0;63.85;39.46892;-0.34094;69.4;NaN;;15.196;;0 / 28;16209;2021-10-27 17:41:24:733
1.146;11.491;1.29;9.754;-0.397;0.919;-1.512;0.112;-3.584;-1.699;1.142;0.691;7.0;27.9;-41.3;-4.3;218.4;25.1;-39.9;0.0;63.85;39.46892;-0.34094;69.4;NaN;;15.196;;0 / 28;16259;2021-10-27 17:41:24:783
1.412;20.982;-0.208;9.773;-0.781;-0.235;-3.492;-12.953;-1.974;-1.006;0.515;0.238;7.0;27.4;-42.0;1.3;177.6;4.6;-91.4;0.0;63.85;39.46892;-0.34094;69.4;NaN;;15.196;;0 / 28;16309;2021-10-27 17:41:24:833
3.669;20.671;-7.875;8.983;-1.47;-3.644;-2.678;-12.039;5.99;-0.56;0.17;-0.053;7.0;27.0;-42.2;7.0;158.8;12.8;-105.1;0.0;63.85;39.46892;-0.34094;69.4;NaN;;15.196;;0 / 28;16359;2021-10-27 17:41:24:883
7.573;5.45;-13.406;3.649;-3.572;-8.375;-2.053;1.161;15.948;1.086;-0.69;0.107;7.0;25.3;-40.7;17.2;143.6;10.5;-148.2;0.0;63.85;39.46892;-0.34094;69.4;NaN;;15.196;;0 / 28;16409;2021-10-27 17:41:24:933
1.823;-1.74;-8.533;-3.457;-1.532;-9.05;-0.469;9.866;7.18;2.001;-0.981;0.648;7.0;24.3;-39.1;23.5;142.2;31.9;-159.5;0.0;55.12;39.46892;-0.34094;69.4;NaN;;15.196;;0 / 28;16459;2021-10-27 17:41:24:983
2.3;-6.704;-1.429;-9.108;-2.729;-2.409;1.59;15.668;0.931;3.259;-1.471;1.63;7.0;22.3;-37.9;28.0;205.8;16.2;104.8;0.0;55.12;39.46892;-0.34094;69.4;NaN;;15.196;;0 / 28;16508;2021-10-27 17:41:25:032
0.907;1.376;9.263;2.279;-1.125;9.471;3.379;8.13;-12.493;4.799;-1.141;3.042;0.0;22.3;-37.9;26.0;220.1;4.6;24.9;0.0;55.12;39.46892;-0.34094;69.4;NaN;;15.196;;0 / 28;16558;2021-10-27 17:41:25:082
-1.567;8.803;-6.608;7.532;1.322;-6.144;6.16;-4.975;-9.57;4.101;3.868;5.141;0.0;23.2;-39.1;20.0;174.8;7.2;-51.9;0.0;55.12;39.46892;-0.34094;69.4;NaN;;15.196;;0 / 28;16609;2021-10-27 17:41:25:133
10.072;-0.225;38.798;0.345;-2.193;9.553;-2.784;6.781;-34.609;-2.583;5.643;-1.206;0.0;24.4;-39.7;16.0;144.2;-2.1;-165.3;0.0;55.12;39.46892;-0.34094;69.4;NaN;;15.196;;0 / 28;16659;2021-10-27 17:41:25:183
0.181;14.12;-2.633;9.787;-0.211;-0.555;7.171;-17.97;28.564;-1.422;3.92;-3.701;0.0;25.3;-39.8;11.6;161.3;1.2;-93.2;0.0;55.12;39.46892;-0.34094;69.4;NaN;;15.196;;0 / 28;16709;2021-10-27 17:41:25:233
-1.053;18.127;-3.798;9.558;0.747;-2.069;5.993;-9.768;1.31;-0.601;0.766;-3.021;0.0;25.4;-39.7;9.7;160.3;-1.5;-100.8;0.0;63.32;39.46892;-0.34094;69.4;NaN;;15.196;;0 / 28;16759;2021-10-27 17:41:25:283
-0.663;15.611;-4.456;9.409;0.287;-2.753;5.663;-11.269;0.676;-1.454;1.945;-2.426;0.0;25.5;-39.2;5.8;167.6;-2.8;-94.3;0.0;63.32;39.46892;-0.34094;69.4;NaN;;15.196;;0 / 28;16808;2021-10-27 17:41:25:332
1.768;11.345;1.335;9.596;-1.513;1.355;1.838;-2.229;-2.146;-0.385;-0.908;-1.879;0.0;25.4;-39.1;3.5;159.4;4.8;-110.8;0.0;63.32;39.46892;-0.34094;69.4;NaN;;15.196;;0 / 28;16858;2021-10-27 17:41:25:382
-1.651;2.532;-2.805;6.144;3.965;-6.536;4.323;6.568;1.365;-0.103;-1.956;-1.284;8.0;26.0;-38.2;-0.4;157.7;-12.1;-130.7;0.0;63.32;39.46892;-0.34094;69.4;NaN;;15.196;;0 / 28;16909;2021-10-27 17:41:25:433
-1.077;2.226;0.004;8.571;4.75;-0.35;2.93;6.978;-1.8;0.112;-2.477;-0.809;8.0;26.5;-37.9;-2.2;174.8;-19.5;-103.0;0.0;63.32;39.46892;-0.34094;69.4;NaN;;15.196;;0 / 28;16959;2021-10-27 17:41:25:483
2.886;1.259;5.23;2.691;-4.583;8.241;-1.504;8.704;-7.213;-0.32;-1.819;-1.086;8.0;28.1;-37.7;-2.9;215.5;12.4;6.6;0.0;63.32;39.46892;-0.34094;69.4;NaN;;15.196;;0 / 28;17009;2021-10-27 17:41:25:533
2.905;16.937;-0.287;9.653;-1.743;-0.067;-1.3;-1.63;-1.496;-1.756;0.981;0.297;8.0;29.4;-38.2;-1.9;220.0;30.9;-59.7;0.0;62.86;39.46892;-0.34094;69.4;NaN;;15.196;;0 / 28;17058;2021-10-27 17:41:25:582
3.19;22.971;0.165;9.682;-1.513;-0.421;-3.614;-15.025;0.08;-1.233;0.482;0.515;8.0;31.3;-39.4;3.2;172.7;8.9;-92.5;0.0;62.86;39.46892;-0.34094;69.4;NaN;;15.196;;0 / 28;17109;2021-10-27 17:41:25:633
3.516;16.549;-12.418;6.867;-1.46;-6.852;-1.516;-6.166;11.972;-0.981;0.305;0.411;8.0;32.2;-40.3;8.0;145.4;10.8;-123.3;0.0;62.86;39.46892;-0.34094;69.4;NaN;;15.196;;0 / 28;17159;2021-10-27 17:41:25:683
5.665;3.142;-11.592;1.748;-3.907;-8.825;-2.811;7.379;9.495;1.152;-1.129;0.465;8.0;33.1;-40.5;16.6;137.6;13.6;-152.1;0.0;62.86;39.46892;-0.34094;69.4;NaN;;15.196;;0 / 28;17209;2021-10-27 17:41:25:733
1.352;-1.957;-5.055;-0.019;-1.499;-9.692;0.396;8.908;5.997;1.152;-1.129;0.465;19.0;33.2;-40.6;20.8;143.0;8.8;179.9;0.0;62.86;39.46892;-0.34094;69.4;NaN;;15.196;;0 / 28;17258;2021-10-27 17:41:25:782
2.154;-4.502;0.995;-8.289;-5.239;-0.038;-1.492;15.086;-0.906;3.96;-1.52;2.259;19.0;32.1;-41.4;22.4;173.8;19.5;133.0;0.0;62.86;39.46892;-0.34094;69.4;NaN;;15.196;;0 / 28;17308;2021-10-27 17:41:25:832
-0.349;5.373;7.975;6.038;0.211;7.724;5.007;3.629;-12.949;5.434;0.207;3.614;19.0;31.3;-42.5;19.7;217.7;18.1;60.4;0.0;62.86;39.46892;-0.34094;69.4;NaN;;15.196;;0 / 28;17358;2021-10-27 17:41:25:882
0.943;6.972;-42.041;2.107;-0.168;-9.577;7.214;-6.246;-3.267;-2.316;4.009;0.355;19.0;29.5;-43.7;12.2;144.1;1.0;-167.6;0.0;61.65;39.46892;-0.34094;69.4;NaN;;15.196;;0 / 28;17408;2021-10-27 17:41:25:932
-4.646;16.286;-12.908;6.45;1.973;-7.116;6.251;-4.87;-17.815;-3.608;4.941;-2.251;19.0;28.6;-43.6;7.6;212.5;8.6;-13.5;0.0;61.65;39.46892;-0.34094;69.4;NaN;;15.196;;0 / 28;17458;2021-10-27 17:41:25:982
0.493;17.088;3.556;9.73;-0.278;1.197;5.575;-10.525;-10.348;-1.849;1.767;-3.209;19.0;27.2;-42.7;3.4;167.4;5.7;-100.3;0.0;61.65;39.46892;-0.34094;69.4;NaN;;15.196;;0 / 28;17508;2021-10-27 17:41:26:032
-0.993;20.671;0.088;9.797;0.388;-0.192;4.782;-12.346;-0.859;-1.102;-0.606;-1.871;0.0;26.2;-42.2;1.3;163.6;5.6;-111.2;0.0;61.65;39.46892;-0.34094;69.4;NaN;;15.196;;0 / 28;17559;2021-10-27 17:41:26:083
1.359;12.554;-6.376;8.835;-0.986;-4.147;3.704;-7.041;4.392;-0.967;-1.037;-1.935;0.0;25.2;-40.4;-2.6;168.1;5.8;-115.1;0.0;61.65;39.46892;-0.34094;69.4;NaN;;15.196;;0 / 28;17608;2021-10-27 17:41:26:132
-0.215;5.134;-2.238;8.174;0.048;-5.416;3.338;2.27;-1.803;-0.606;-1.712;-1.01;0.0;24.1;-38.8;-5.2;189.1;-3.2;-86.4;0.0;61.65;39.46892;-0.34094;69.4;NaN;;15.196;;0 / 28;17659;2021-10-27 17:41:26:183
-2.338;2.369;-2.123;6.479;5.291;-5.124;4.378;8.04;-0.136;-0.262;-2.34;-0.741;0.0;22.4;-37.1;-8.0;156.7;-25.2;-154.6;0.0;64.16;39.46892;-0.34094;69.4;NaN;;15.196;;0 / 28;17709;2021-10-27 17:41:26:233
1.259;-0.299;0.749;0.0;-9.395;2.806;0.446;9.244;-3.225;0.333;-2.985;-0.248;0.0;21.4;-36.4;-9.1;184.0;-15.4;-105.2;0.0;64.16;39.46892;-0.34094;69.4;NaN;;15.196;;0 / 28;17758;2021-10-27 17:41:26:282
3.511;3.068;3.293;6.263;-5.885;4.721;-2.349;9.41;-7.43;-0.78;-0.791;0.116;0.0;21.4;-36.7;-8.5;220.3;36.9;-53.0;0.0;64.16;39.46892;-0.34094;69.4;NaN;;15.196;;0 / 28;17809;2021-10-27 17:41:26:333
5.112;23.23;1.165;9.61;-1.906;0.46;-0.68;-11.839;-2.453;-0.78;-0.791;0.116;0.0;21.4;-37.3;-6.1;188.9;1.2;-90.8;0.0;64.16;39.46892;-0.34094;69.4;NaN;;15.196;;0 / 28;17859;2021-10-27 17:41:26:383
5.763;22.739;-5.696;9.237;-2.452;-2.203;-3.79;-13.0;4.169;-1.361;0.78;0.421;9.0;21.6;-39.7;0.5;182.7;4.6;-90.7;0.0;64.16;39.46892;-0.34094;69.4;NaN;;15.196;;0 / 28;17908;2021-10-27 17:41:26:432
5.076;14.79;-11.13;7.743;-2.581;-5.44;-2.891;-7.908;10.004;0.21;-0.589;0.001;9.0;21.4;-40.6;5.9;161.8;14.1;-112.6;0.0;64.16;39.46892;-0.34094;69.4;NaN;;15.196;;0 / 28;17959;2021-10-27 17:41:26:483
3.341;1.369;-7.92;1.154;-3.543;-9.074;-2.823;4.887;9.128;0.884;-0.568;0.16;9.0;20.9;-40.8;13.9;148.4;24.1;-159.9;0.0;56.39;39.46892;-0.34094;69.4;NaN;;15.196;;0 / 28;18009;2021-10-27 17:41:26:533
1.017;-4.902;-4.155;-7.652;-1.623;-5.914;1.733;13.037;1.983;2.276;-1.034;0.936;9.0;21.0;-40.0;18.2;165.6;2.7;153.1;0.0;56.39;39.46892;-0.34094;69.4;NaN;;15.196;;0 / 28;18059;2021-10-27 17:41:26:583
2.156;-4.557;0.892;-7.029;-3.759;5.713;-0.779;14.608;-3.573;5.041;-0.846;3.075;9.0;21.4;-39.0;20.3;203.3;30.7;94.2;0.0;56.39;39.46892;-0.34094;69.4;NaN;;15.196;;0 / 28;18109;2021-10-27 17:41:26:633
-1.73;10.412;1.227;9.51;1.58;1.815;4.966;-2.769;-11.531;5.307;2.132;4.695;9.0;22.3;-38.5;17.6;213.3;15.1;-1.9;0.0;56.39;39.46892;-0.34094;69.4;NaN;;15.196;;0 / 28;18159;2021-10-27 17:41:26:683
1.036;-5.036;-10.486;-7.312;-2.84;5.885;8.857;-0.576;16.411;0.855;0.758;0.301;9.0;23.8;-37.9;12.8;144.2;-8.1;-165.8;0.0;56.39;39.46892;-0.34094;69.4;NaN;;15.196;;0 / 28;18209;2021-10-27 17:41:26:733
-3.925;25.714;-29.559;6.378;0.977;-7.384;9.568;-17.606;19.087;-1.691;5.029;-3.701;0.0;24.7;-37.3;9.4;202.9;5.1;-36.5;0.0;56.39;39.46892;-0.34094;69.4;NaN;;15.196;;0 / 28;18258;2021-10-27 17:41:26:782
2.771;14.768;-5.115;9.203;-2.605;-2.174;4.05;-6.423;-7.579;-1.058;2.63;-3.381;0.0;25.1;-37.0;7.7;186.0;5.0;-64.3;0.0;56.39;39.46892;-0.34094;69.4;NaN;;15.196;;0 / 28;18309;2021-10-27 17:41:26:833
-1.261;20.767;-1.077;9.764;0.728;-0.551;5.631;-12.575;-0.739;-1.272;1.549;-2.254;0.0;25.0;-36.3;5.0;158.2;4.4;-109.8;0.0;63.44;39.46897;-0.34096;69.4;NaN;;14.846;;0 / 28;18359;2021-10-27 17:41:26:883
-0.047;13.145;-3.231;9.558;-0.541;-2.126;4.471;-4.936;1.414;-1.012;0.81;-2.314;0.0;24.2;-34.9;1.0;169.6;3.2;-102.5;0.0;63.44;39.46897;-0.34096;69.4;NaN;;14.846;;0 / 28;18409;2021-10-27 17:41:26:933
-1.034;6.142;-3.702;6.891;1.695;-6.776;4.09;2.49;1.222;-1.012;0.81;-2.314;0.0;23.8;-33.4;-2.5;173.6;-2.6;-106.2;0.0;63.44;39.46897;-0.34096;69.4;NaN;;14.846;;0 / 28;18459;2021-10-27 17:41:26:983
-0.876;2.204;-0.763;8.835;3.61;-2.26;3.829;7.238;0.115;-1.012;0.81;-2.314;0.0;23.4;-31.8;-5.9;154.2;-9.0;-147.0;0.0;63.44;39.46897;-0.34096;69.4;NaN;;14.846;;0 / 28;18509;2021-10-27 17:41:27:033
0.703;-0.105;0.866;-1.753;-6.167;7.422;1.456;9.191;-3.111;0.022;-2.363;-1.044;9.0;23.5;-31.1;-7.1;188.7;-23.9;-92.8;0.0;63.44;39.46897;-0.34096;69.4;NaN;;14.846;;0 / 28;18558;2021-10-27 17:41:27:082
3.643;5.273;3.24;7.834;-4.793;3.448;-1.687;7.484;-7.103;-0.462;-1.225;-0.211;9.0;23.6;-31.8;-5.3;218.1;29.2;-66.2;0.0;63.44;39.46897;-0.34096;69.4;NaN;;14.846;;0 / 28;18608;2021-10-27 17:41:27:132
3.623;21.729;-0.327;9.467;-2.533;-0.441;-5.44;-13.938;-0.431;-1.464;0.705;0.564;9.0;23.6;-32.8;-2.3;180.8;15.3;-93.9;0.0;63.27;39.46897;-0.34096;69.4;NaN;;14.846;;0 / 28;18659;2021-10-27 17:41:27:183
3.633;21.353;-5.677;8.772;-1.939;-3.926;-2.256;-11.229;6.852;-1.078;0.463;0.157;9.0;22.7;-34.3;4.6;180.5;3.3;-84.3;0.0;63.27;39.46897;-0.34096;69.4;NaN;;14.846;;0 / 28;18709;2021-10-27 17:41:27:233
3.458;10.364;-13.411;4.027;-2.988;-8.428;-1.391;-1.678;11.774;0.49;-0.357;-0.012;9.0;21.9;-34.6;10.1;151.2;12.7;-119.2;0.0;63.27;39.46897;-0.34096;69.4;NaN;;14.846;;0 / 28;18759;2021-10-27 17:41:27:283
1.151;0.603;-7.398;1.547;-3.065;-9.189;-3.766;5.993;8.542;1.303;-0.484;0.358;9.0;19.6;-33.7;17.8;148.3;18.2;-170.4;0.0;63.27;39.46897;-0.34096;69.4;NaN;;14.846;;0 / 28;18809;2021-10-27 17:41:27:333
1.84;-5.694;-4.926;-8.068;-2.926;-4.745;0.955;13.916;2.691;2.959;-1.361;1.303;9.0;18.4;-32.9;20.5;179.1;10.9;139.3;0.0;63.27;39.46897;-0.34096;69.4;NaN;;14.846;;0 / 28;18859;2021-10-27 17:41:27:383
0.639;-1.78;2.759;-4.147;-1.173;8.811;1.235;12.215;-4.986;4.822;-0.832;3.101;0.0;16.4;-33.3;19.9;212.4;23.2;83.3;0.0;63.27;39.46897;-0.34096;69.4;NaN;;14.846;;0 / 28;18909;2021-10-27 17:41:27:433
1.699;9.172;4.002;9.232;-1.255;3.06;2.553;-3.172;-11.172;3.832;2.373;4.135;0.0;15.9;-34.3;16.1;202.1;5.7;-9.2;0.0;61.16;39.46897;-0.34096;69.4;NaN;;14.846;;0 / 28;18958;2021-10-27 17:41:27:482
0.909;-0.931;-20.051;-3.122;-3.069;-8.777;5.96;2.023;29.462;-0.016;4.469;2.658;0.0;15.6;-35.5;11.8;165.6;7.4;-71.7;0.0;61.16;39.46897;-0.34096;69.4;NaN;;14.846;;0 / 28;19009;2021-10-27 17:41:27:533
0.241;24.673;-2.527;9.237;0.704;-3.232;12.324;-22.179;22.309;-3.602;7.143;-0.784;0.0;15.7;-37.0;5.5;164.4;18.2;160.4;0.0;61.16;39.46897;-0.34096;69.4;NaN;;14.846;;0 / 28;19058;2021-10-27 17:41:27:582
2.637;14.601;-6.166;8.878;-1.776;-3.768;2.028;-7.056;1.99;-3.602;7.143;-0.784;0.0;16.4;-37.8;1.7;166.9;10.4;-113.0;0.0;61.16;39.46897;-0.34096;69.4;NaN;;14.846;;0 / 28;19109;2021-10-27 17:41:27:633
-0.584;19.218;-2.357;9.692;0.306;-1.465;5.341;-11.03;-0.447;-1.754;2.051;-2.308;0.0;16.9;-38.3;-0.7;179.8;-1.0;-93.7;0.0;61.16;39.46897;-0.34096;69.4;NaN;;14.846;;0 / 28;19159;2021-10-27 17:41:27:683
1.251;12.152;-2.448;9.524;-0.871;-2.174;3.767;-4.725;1.749;-0.547;-3.395;-1.321;0.0;17.8;-37.6;-4.6;176.5;0.4;-107.6;0.0;61.16;39.46897;-0.34096;69.4;NaN;;14.846;;0 / 28;19209;2021-10-27 17:41:27:733
-2.206;3.415;-5.067;7.35;2.322;-6.062;4.272;2.089;1.572;-0.649;-2.8;-0.947;0.0;18.2;-36.8;-7.4;188.2;1.7;-92.3;0.0;61.16;39.46897;-0.34096;69.4;NaN;;14.846;;0 / 28;19259;2021-10-27 17:41:27:783
-2.317;1.026;0.019;5.344;8.222;0.0;5.015;9.114;-2.238;-0.556;-3.048;-0.89;0.0;19.2;-35.5;-10.6;197.4;-57.0;-90.0;0.0;63.57;39.46897;-0.34096;69.4;NaN;;14.846;;0 / 28;19309;2021-10-27 17:41:27:833
0.27;1.122;-0.306;9.366;-2.777;-0.867;1.322;7.755;-2.533;0.069;-3.678;-0.589;0.0;20.2;-35.4;-11.2;196.0;-11.7;-90.0;0.0;63.57;39.46897;-0.34096;69.4;NaN;;14.846;;0 / 28;19358;2021-10-27 17:41:27:882
2.786;5.79;4.423;8.571;-3.27;3.467;-1.901;6.52;-8.121;-0.787;-3.083;-1.256;0.0;22.3;-36.8;-9.5;216.0;24.2;-28.7;0.0;63.57;39.46897;-0.34096;69.4;NaN;;14.846;;0 / 28;19409;2021-10-27 17:41:27:933
2.941;17.547;3.25;9.476;-1.652;1.915;-1.728;-7.83;-4.432;-1.987;2.03;0.532;0.0;24.0;-38.6;-6.4;201.5;16.9;-80.0;0.0;63.57;39.46897;-0.34096;69.4;NaN;;14.846;;0 / 28;19458;2021-10-27 17:41:27:982
3.645;24.427;-10.67;8.777;-1.369;-4.156;-1.106;-13.029;5.8;-1.069;0.858;0.271;0.0;25.3;-40.6;-1.6;192.0;0.6;-80.1;0.0;63.57;39.46897;-0.34096;69.4;NaN;;14.846;;0 / 28;19508;2021-10-27 17:41:28:032
4.191;11.685;-8.526;7.408;-3.002;-5.684;-2.344;-2.362;7.461;0.676;-0.136;0.101;3.0;27.4;-42.5;8.0;162.6;8.0;-115.3;0.0;63.57;39.46897;-0.34096;69.4;NaN;;14.846;;0 / 28;19558;2021-10-27 17:41:28:082
4.047;3.738;-9.701;3.103;-3.414;-8.653;-3.576;4.709;8.736;1.048;-0.233;0.173;3.0;28.3;-41.5;17.5;142.4;20.4;-160.3;0.0;63.57;39.46897;-0.34096;69.4;NaN;;14.846;;0 / 28;19608;2021-10-27 17:41:28:132
1.591;-4.624;-5.483;-3.955;-3.256;-8.365;-0.985;11.069;3.667;2.778;-0.505;0.934;3.0;28.5;-40.3;22.3;147.4;22.6;-180.0;0.0;57.76;39.46897;-0.34096;69.4;NaN;;14.846;;0 / 28;19659;2021-10-27 17:41:28:183
0.442;-4.61;-1.646;-9.352;-1.369;-2.619;2.093;14.087;-1.795;3.38;-0.597;1.379;3.0;28.4;-39.0;23.9;192.1;2.3;116.3;0.0;57.76;39.46897;-0.34096;69.4;NaN;;14.846;;0 / 28;19708;2021-10-27 17:41:28:232
2.7;6.642;7.159;7.029;-2.38;6.407;1.19;-0.503;-12.782;3.38;-0.597;1.379;3.0;28.3;-39.2;21.7;224.4;14.1;20.9;0.0;57.76;39.46897;-0.34096;69.4;NaN;;14.846;;0 / 28;19759;2021-10-27 17:41:28:283
0.392;7.056;-16.98;2.035;-0.397;-9.586;4.321;-1.856;-1.619;-0.508;3.837;0.585;3.0;28.6;-40.3;15.2;142.0;2.3;-168.0;0.0;57.76;39.46897;-0.34096;69.4;NaN;;14.846;;0 / 28;19809;2021-10-27 17:41:28:333
-5.098;19.608;-9.105;9.366;2.648;-1.188;10.692;-11.518;-1.747;-3.481;6.213;-0.991;3.0;28.3;-41.1;11.0;211.3;-1.0;-12.0;0.0;57.76;39.46897;-0.34096;69.4;NaN;;14.846;;0 / 28;19859;2021-10-27 17:41:28:383
-0.935;12.688;-3.846;9.476;0.129;-2.519;6.473;-4.547;1.413;-1.02;1.555;-2.682;0.0;27.2;-41.6;7.9;154.7;-0.8;-116.2;0.0;57.76;39.46897;-0.34096;69.4;NaN;;14.846;;0 / 28;19909;2021-10-27 17:41:28:433
0.059;18.876;-4.741;9.577;0.077;-2.102;4.16;-10.277;1.879;-0.751;0.588;-2.32;0.0;26.4;-41.9;6.7;166.6;6.8;-94.7;0.0;63.09;39.46897;-0.34096;69.4;NaN;;14.846;;0 / 28;19958;2021-10-27 17:41:28:482
0.294;12.26;-5.297;9.38;0.077;-2.868;3.493;-8.894;0.918;-0.248;-1.027;-1.369;0.0;25.6;-41.5;3.5;166.1;-0.4;-107.0;0.0;63.09;39.46897;-0.34096;69.4;NaN;;14.846;;0 / 28;20010;2021-10-27 17:41:28:534
-0.713;8.83;-1.227;9.615;1.36;-1.389;2.731;0.107;-0.854;-0.251;-1.144;-1.07;0.0;25.1;-40.7;0.5;171.9;8.1;-100.0;0.0;63.09;39.46897;-0.34096;69.4;NaN;;14.846;;0 / 28;20059;2021-10-27 17:41:28:583
-2.23;0.753;-1.402;3.491;7.829;-4.76;4.557;7.688;0.422;-0.118;-1.669;-1.02;0.0;24.1;-40.0;-2.9;160.6;-31.4;-134.6;0.0;63.09;39.46897;-0.34096;69.4;NaN;;14.846;;0 / 28;20109;2021-10-27 17:41:28:633
-0.67;2.609;-0.382;9.553;2.207;-0.259;2.055;6.79;-1.789;0.641;-3.33;-0.443;0.0;23.5;-39.5;-4.3;162.4;-32.0;-134.8;0.0;63.09;39.46897;-0.34096;69.4;NaN;;14.846;;0 / 28;20158;2021-10-27 17:41:28:682
2.7;0.38;3.578;1.255;-5.847;7.772;-0.381;9.584;-4.382;0.514;-3.836;-0.811;0.0;23.6;-40.1;-3.8;189.6;-11.4;-81.4;0.0;63.09;39.46897;-0.34096;69.4;NaN;;14.846;;0 / 28;20208;2021-10-27 17:41:28:732
2.834;13.406;0.864;9.61;-1.882;0.551;-2.018;-2.946;-2.762;-1.774;1.857;1.164;5.0;23.9;-40.5;-1.9;223.4;41.4;-45.3;0.0;61.2;39.46897;-0.34096;69.4;NaN;;14.846;;0 / 28;20258;2021-10-27 17:41:28:782
2.34;21.88;0.186;9.744;-1.12;-0.101;-1.306;-10.88;-0.765;-1.034;1.024;0.607;5.0;24.8;-41.7;3.7;173.7;6.6;-90.6;0.0;61.2;39.46897;-0.34096;69.4;NaN;;14.846;;0 / 28;20309;2021-10-27 17:41:28:833
3.865;19.697;-5.773;9.251;-1.906;-2.648;-2.528;-10.984;4.428;-1.034;1.024;0.607;5.0;25.1;-42.2;8.8;158.5;10.8;-103.6;0.0;61.2;39.46897;-0.34096;69.4;NaN;;14.846;;0 / 28;20359;2021-10-27 17:41:28:883
5.285;6.604;-11.661;4.932;-3.692;-7.633;-4.256;-0.943;7.817;-1.034;1.024;0.607;5.0;24.8;-41.6;17.5;142.3;22.3;-124.0;0.0;61.2;39.46897;-0.34096;69.4;NaN;;14.846;;0 / 28;20408;2021-10-27 17:41:28:932
1.457;0.421;-7.666;0.326;-1.757;-9.644;-1.318;7.816;9.682;1.699;-0.542;0.577;5.0;24.7;-40.5;22.6;145.3;17.9;-163.7;0.0;61.2;39.46897;-0.34096;69.4;NaN;;14.846;;0 / 28;20459;2021-10-27 17:41:28:983
2.714;-4.758;-2.271;-7.566;-3.524;-5.157;0.424;14.609;2.05;2.853;-1.18;1.526;5.0;23.8;-39.4;26.5;190.2;21.1;124.3;0.0;61.2;39.46897;-0.34096;69.4;NaN;;14.846;;0 / 28;20509;2021-10-27 17:41:29:033
0.832;3.513;4.464;6.235;-1.197;7.475;1.05;8.597;-6.563;4.229;-1.136;2.864;3.0;23.5;-39.7;26.0;219.1;27.3;-13.2;0.0;61.2;39.46897;-0.34096;69.4;NaN;;14.846;;0 / 28;20559;2021-10-27 17:41:29:083
-1.081;4.705;-5.558;4.731;1.719;-8.418;4.162;0.077;-6.407;3.35;0.523;2.811;3.0;24.3;-41.3;21.5;168.9;1.8;-59.9;0.0;59.61;39.46897;-0.34096;69.4;NaN;;14.846;;0 / 28;20609;2021-10-27 17:41:29:133
1.141;17.31;12.154;1.302;-2.308;9.443;1.319;11.481;7.659;2.081;-0.962;1.246;3.0;24.8;-41.9;18.4;147.9;-2.5;-174.3;0.0;59.61;39.46897;-0.34096;69.4;NaN;;14.846;;0 / 28;20659;2021-10-27 17:41:29:183
-0.239;15.809;7.386;8.389;-0.555;5.047;5.983;-17.176;-7.395;-1.304;3.449;-3.066;3.0;26.2;-42.2;14.8;180.8;3.2;-59.0;0.0;59.61;39.46897;-0.34096;69.4;NaN;;14.846;;0 / 28;20709;2021-10-27 17:41:29:233
3.097;13.543;-7.022;8.543;-1.781;-4.472;2.284;-5.415;5.35;-0.676;1.774;-2.801;3.0;26.4;-42.3;13.4;148.3;10.5;-117.6;0.0;59.61;39.46897;-0.34096;69.4;NaN;;14.846;;0 / 28;20759;2021-10-27 17:41:29:283
1.811;14.416;-4.918;9.438;-1.106;-2.423;1.409;-5.161;4.506;-0.454;0.692;-2.289;3.0;26.7;-42.0;12.5;153.7;6.5;-104.4;0.0;59.61;39.46897;-0.34096;69.4;NaN;;14.846;;0 / 28;20808;2021-10-27 17:41:29:332
0.256;10.52;-1.534;9.711;-0.646;-1.202;2.598;-4.143;1.767;-0.172;-0.813;-1.067;3.0;26.6;-41.8;8.0;164.4;3.8;-97.1;0.0;59.61;39.46897;-0.34096;69.4;NaN;;14.846;;0 / 28;20858;2021-10-27 17:41:29:382
-0.94;4.964;0.052;9.577;1.992;0.713;4.255;3.643;-1.594;-0.218;-0.947;-0.932;0.0;25.8;-41.5;3.8;170.6;-15.3;-96.2;0.0;62.45;39.46897;-0.34096;69.4;NaN;;14.846;;0 / 28;20909;2021-10-27 17:41:29:433
-0.445;1.409;-3.492;5.277;2.581;-7.853;2.34;8.045;1.784;0.223;-2.142;-0.52;0.0;24.8;-41.6;1.9;151.9;4.5;-143.1;0.0;62.45;39.46897;-0.34096;69.4;NaN;;14.846;;0 / 28;20959;2021-10-27 17:41:29:483
0.572;1.582;1.869;5.689;-4.003;6.914;2.394;8.994;-3.455;-0.105;-1.927;-1.136;0.0;24.1;-42.2;0.5;210.0;24.1;-39.4;0.0;62.45;39.46897;-0.34096;69.4;NaN;;14.846;;0 / 28;21009;2021-10-27 17:41:29:533
0.289;0.098;2.534;3.735;-0.397;9.06;-1.34;12.059;-2.746;-1.894;1.431;0.191;0.0;23.8;-42.2;1.1;190.0;40.7;72.4;0.0;62.45;39.46897;-0.34096;69.4;NaN;;14.846;;0 / 28;21059;2021-10-27 17:41:29:583
5.368;18.447;-0.313;9.39;-2.811;-0.335;-3.624;-7.918;-1.015;-1.894;1.431;0.191;0.0;23.5;-42.7;2.8;177.1;8.6;-87.5;0.0;62.45;39.46897;-0.34096;69.4;NaN;;14.846;;0 / 28;21109;2021-10-27 17:41:29:633
5.024;18.632;-1.627;9.38;-2.705;-0.895;-4.751;-10.522;0.751;-0.421;-0.258;0.889;0.0;22.6;-43.6;7.0;171.1;22.5;-89.6;0.0;62.45;39.46897;-0.34096;69.4;NaN;;14.846;;0 / 28;21159;2021-10-27 17:41:29:683
-0.004;12.865;-3.023;9.471;-0.019;-2.547;1.797;-3.66;2.575;-0.107;-0.607;0.801;0.0;21.3;-44.3;10.1;158.1;21.3;-102.8;0.0;62.45;39.46897;-0.34096;69.4;NaN;;14.846;;0 / 28;21209;2021-10-27 17:41:29:733
8.416;11.319;-6.594;7.211;-4.659;-4.745;-4.718;-4.465;7.312;0.454;-0.596;0.487;23.0;20.2;-44.8;14.0;147.3;28.4;-123.3;0.0;62.35;39.46897;-0.34096;69.4;NaN;;14.846;;0 / 28;21258;2021-10-27 17:41:29:782
-2.537;0.859;-3.245;5.986;-3.476;-6.948;12.122;11.914;2.348;0.777;-0.43;0.866;23.0;19.8;-44.8;15.4;149.2;33.7;-92.8;0.0;62.35;39.46897;-0.34096;69.4;NaN;;14.846;;0 / 28;21309;2021-10-27 17:41:29:833
0.667;4.129;-2.056;9.06;-0.613;-3.711;2.199;3.855;-2.265;0.777;-0.43;0.866;23.0;20.5;-44.9;15.4;149.3;20.0;-121.2;0.0;62.35;39.46897;-0.34096;69.4;NaN;;14.846;;0 / 28;21359;2021-10-27 17:41:29:883
0.744;3.899;-0.73;9.591;-1.719;-1.101;1.711;5.155;-1.586;1.028;-0.965;0.244;23.0;21.7;-44.6;13.7;158.1;10.1;-96.6;0.0;62.35;39.46897;-0.34096;69.4;NaN;;14.846;;0 / 28;21408;2021-10-27 17:41:29:932
0.131;4.119;-0.916;9.543;0.436;-2.217;1.266;5.801;-2.992;0.715;-0.745;-0.349;23.0;22.1;-44.2;12.8;158.1;10.1;-96.6;0.0;62.35;39.46897;-0.34096;69.4;NaN;;14.846;;0 / 28;21459;2021-10-27 17:41:29:983
-0.646;5.498;-1.388;9.448;1.149;-2.375;2.336;4.628;-1.989;-0.607;1.865;-0.343;23.0;22.1;-44.2;12.2;159.7;-6.7;-104.1;0.0;62.35;39.46897;-0.34096;69.4;NaN;;14.846;;0 / 28;21509;2021-10-27 17:41:30:033
3.499;15.202;-2.163;9.409;-2.284;-1.571;-0.388;-5.932;-0.053;-0.5;1.393;-0.324;8.0;21.9;-43.9;7.7;165.4;3.4;-98.4;0.0;62.35;39.46897;-0.34096;69.4;NaN;;14.846;;0 / 28;21558;2021-10-27 17:41:30:082
1.934;14.842;-1.479;9.644;-1.226;-1.312;-0.253;-5.231;-1.223;-0.593;0.747;-0.283;8.0;21.5;-43.9;5.8;172.4;3.6;-89.1;0.0;60.43;39.46897;-0.34096;69.4;NaN;;14.846;;0 / 28;21608;2021-10-27 17:41:30:132
1.429;15.355;-0.342;9.764;-0.235;-0.91;-0.376;-3.81;-3.145;-0.519;0.112;-0.134;8.0;21.8;-43.7;2.9;178.4;8.8;-82.3;0.0;60.43;39.46897;-0.34096;69.4;NaN;;14.846;;0 / 28;21659;2021-10-27 17:41:30:183
10.814;11.613;-11.616;5.545;-3.874;-7.101;-7.303;-0.181;0.643;-0.511;-0.251;0.083;8.0;22.1;-43.0;0.4;192.1;10.1;-67.9;0.0;60.43;39.46897;-0.34096;69.4;NaN;;14.846;;0 / 28;21709;2021-10-27 17:41:30:233
-0.136;11.573;-4.734;8.255;0.488;-5.272;0.416;-3.415;-3.165;-0.146;-1.133;0.133;8.0;23.2;-41.8;-2.0;199.5;-2.4;-54.0;0.0;60.43;39.46897;-0.34096;69.4;NaN;;14.846;;0 / 28;21758;2021-10-27 17:41:30:282
-3.008;8.121;-1.467;8.432;5.009;-0.077;5.418;-0.715;9.194;0.504;-2.745;-0.043;8.0;24.7;-38.0;-7.4;162.2;-13.8;-136.5;0.0;60.43;39.46897;-0.34096;69.4;NaN;;14.846;;0 / 28;21809;2021-10-27 17:41:30:333
-0.241;6.182;7.879;6.421;0.34;7.408;2.245;3.854;-11.922;-0.674;-0.926;-0.693;8.0;24.4;-34.3;-12.2;206.1;-10.6;-66.7;0.0;60.43;39.46897;-0.34096;69.4;NaN;;14.846;;0 / 28;21858;2021-10-27 17:41:30:382
-0.619;3.837;3.868;6.747;1.188;7.015;-1.039;4.326;-4.354;-2.202;1.631;-1.021;87.0;21.4;-28.4;-19.4;225.4;-7.0;-43.9;0.0;60.43;39.46897;-0.34096;69.4;NaN;;14.846;;0 / 28;21909;2021-10-27 17:41:30:433
-1.034;3.647;5.407;5.636;1.279;7.925;1.661;5.931;-4.282;-3.41;3.116;-0.338;87.0;18.9;-24.9;-23.3;230.0;-10.1;-22.8;0.0;62.91;39.46897;-0.34096;69.4;NaN;;14.846;;0 / 28;21958;2021-10-27 17:41:30:482
1.213;3.911;5.883;4.846;-1.264;8.432;0.443;5.315;-1.224;-3.432;1.877;0.417;87.0;17.0;-20.4;-26.3;233.3;-2.4;-39.7;0.0;62.91;39.46897;-0.34096;69.4;NaN;;14.846;;0 / 28;22009;2021-10-27 17:41:30:533
0.581;2.333;5.304;4.032;-1.006;8.882;0.208;6.484;-1.017;-3.113;1.163;0.366;87.0;17.2;-18.0;-27.5;231.0;2.7;-18.2;0.0;62.91;39.46897;-0.34096;69.4;NaN;;14.846;;0 / 28;22058;2021-10-27 17:41:30:582
1.517;3.856;10.491;3.61;-1.322;9.021;-0.765;4.224;-5.694;-2.331;-0.189;-0.344;87.0;17.6;-15.9;-27.8;234.7;4.2;-15.6;0.0;62.91;39.46897;-0.34096;69.4;NaN;;14.846;;0 / 28;22109;2021-10-27 17:41:30:633
1.577;3.961;5.378;5.492;-2.246;7.81;-0.228;3.748;1.843;-2.02;-0.556;-0.381;87.0;17.5;-15.7;-28.0;241.9;7.0;-44.0;0.0;62.91;39.46897;-0.34096;69.4;NaN;;14.846;;0 / 28;22159;2021-10-27 17:41:30:683
1.074;5.119;8.286;5.315;-1.063;8.169;-0.475;2.168;-2.625;-1.648;-0.754;-0.51;87.0;16.3;-16.0;-27.7;237.6;6.8;-27.9;0.0;62.91;39.46897;-0.34096;69.4;NaN;;14.846;;0 / 28;22209;2021-10-27 17:41:30:733
1.654;5.945;6.855;6.33;-1.748;7.283;-0.553;0.671;0.343;-1.064;-0.848;-0.668;122.0;15.3;-15.7;-27.8;240.6;7.6;-41.6;0.0;58.84;39.46897;-0.34096;69.4;NaN;;14.846;;0 / 28;22259;2021-10-27 17:41:30:783
0.538;6.393;7.875;6.11;-0.565;7.652;-0.05;0.557;-0.698;-0.571;-0.909;-0.844;122.0;14.5;-15.0;-28.3;241.0;3.3;-38.6;0.0;58.84;39.46897;-0.34096;69.4;NaN;;14.846;;0 / 28;22308;2021-10-27 17:41:30:832
1.5;6.139;6.541;6.445;-1.599;7.216;-0.406;0.164;0.962;-0.309;-0.988;-0.982;122.0;14.1;-14.8;-28.9;241.2;9.0;-43.7;0.0;58.84;39.46897;-0.34096;69.4;NaN;;14.846;;0 / 28;22359;2021-10-27 17:41:30:883
0.787;6.673;7.738;6.699;-0.795;7.12;0.057;-0.34;-0.259;-0.203;-0.951;-0.966;122.0;13.6;-14.7;-29.8;241.1;7.0;-41.6;0.0;58.84;39.46897;-0.34096;69.4;NaN;;14.846;;0 / 28;22409;2021-10-27 17:41:30:933
1.493;6.623;7.745;6.215;-1.408;7.456;-0.389;-0.293;-0.121;-0.096;-0.914;-0.981;122.0;13.3;-14.5;-29.8;239.8;7.6;-39.1;0.0;58.84;39.46897;-0.34096;69.4;NaN;;14.846;;0 / 28;22459;2021-10-27 17:41:30:983
1.491;5.955;7.36;6.182;-1.575;7.451;-0.177;-0.359;-0.452;-0.081;-0.852;-0.917;122.0;12.8;-14.3;-29.8;241.0;9.2;-39.7;0.0;58.84;39.46897;-0.34096;69.4;NaN;;14.846;;0 / 28;22508;2021-10-27 17:41:31:032
1.22;6.797;6.402;6.934;-1.092;6.852;-0.114;-0.365;1.064;-0.102;-0.668;-0.731;119.0;13.0;-14.0;-29.6;243.4;7.7;-46.6;0.0;27.76;39.46897;-0.34096;69.4;NaN;;14.846;;0 / 28;22559;2021-10-27 17:41:31:083
0.761;6.084;7.547;6.196;-0.632;7.575;0.214;-0.417;-0.547;-0.086;-0.58;-0.614;119.0;13.7;-13.8;-29.0;242.1;5.2;-40.4;0.0;27.76;39.46897;-0.34096;69.4;NaN;;14.846;;0 / 28;22609;2021-10-27 17:41:31:133
0.603;5.663;8.267;5.521;-0.522;8.088;0.566;0.774;-0.568;-0.063;-0.441;-0.498;119.0;14.2;-13.5;-28.7;242.3;5.1;-38.1;0.0;27.76;39.46897;-0.34096;69.4;NaN;;14.846;;0 / 28;22659;2021-10-27 17:41:31:183
0.888;5.828;7.963;5.665;-0.848;7.958;0.345;0.427;-0.655;-0.098;-0.291;-0.421;119.0;14.7;-12.7;-28.7;243.9;5.0;-35.4;0.0;27.76;39.46897;-0.34096;69.4;NaN;;14.846;;0 / 28;22708;2021-10-27 17:41:31:232
0.363;6.022;7.262;6.354;-0.383;7.46;0.569;0.08;0.318;-0.25;0.074;-0.176;119.0;15.0;-12.2;-28.9;246.8;4.1;-39.8;0.0;27.76;39.46897;-0.34096;69.4;NaN;;14.846;;0 / 28;22759;2021-10-27 17:41:31:283
0.258;5.56;8.068;5.545;-0.206;8.088;0.581;0.651;-0.433;-0.233;0.112;-0.166;119.0;15.8;-11.8;-29.3;246.3;2.8;-35.2;0.0;27.76;39.46897;-0.34096;69.4;NaN;;14.846;;0 / 28;22808;2021-10-27 17:41:31:332
0.004;5.364;8.437;5.301;0.0;8.25;0.872;0.719;-0.709;-0.229;0.116;-0.169;119.0;16.0;-12.1;-29.3;247.5;0.7;-32.1;0.0;27.76;39.46897;-0.34096;69.4;NaN;;14.846;;0 / 28;22859;2021-10-27 17:41:31:383
0.047;5.361;7.685;5.607;-0.057;8.045;0.683;0.641;-0.089;-0.229;0.116;-0.169;127.0;15.8;-12.1;-29.2;247.9;0.3;-34.9;0.0;25.65;39.46897;-0.34096;69.4;NaN;;14.846;;0 / 28;22908;2021-10-27 17:41:31:432
0.076;5.622;8.511;5.377;-0.12;8.198;0.296;0.555;-0.215;-0.258;0.24;-0.085;127.0;15.1;-12.1;-29.3;246.8;0.7;-33.3;0.0;25.65;39.46897;-0.34096;69.4;NaN;;14.846;;0 / 28;22959;2021-10-27 17:41:31:483
0.813;5.455;7.298;5.76;-0.843;7.891;-0.527;0.743;0.329;-0.227;0.199;-0.049;127.0;14.3;-11.5;-29.3;245.0;6.6;-36.1;0.0;25.65;39.46897;-0.34096;69.4;NaN;;14.846;;0 / 28;23008;2021-10-27 17:41:31:532
0.952;5.366;7.834;5.516;-0.943;8.054;-0.427;0.292;-0.013;-0.159;0.085;-0.058;127.0;13.3;-11.4;-29.6;246.7;5.8;-37.7;0.0;25.65;39.46897;-0.34096;69.4;NaN;;14.846;;0 / 28;23059;2021-10-27 17:41:31:583
1.352;5.531;9.184;5.171;-1.264;8.236;-0.804;0.26;-0.482;-0.093;-0.137;0.004;127.0;12.2;-11.2;-29.9;242.9;7.4;-32.1;0.0;25.65;39.46897;-0.34096;69.4;NaN;;14.846;;0 / 28;23108;2021-10-27 17:41:31:632
1.438;5.184;7.02;5.727;-1.484;7.824;-0.566;0.858;1.579;-0.076;-0.326;0.074;127.0;10.9;-10.9;-30.2;242.9;9.5;-36.9;0.0;25.65;39.46897;-0.34096;69.4;NaN;;14.846;;0 / 28;23159;2021-10-27 17:41:31:683