sep=;
ACCELEROMETER X (m/s²);ACCELEROMETER Y (m/s²);ACCELEROMETER Z (m/s²);GRAVITY X (m/s²);GRAVITY Y (m/s²);GRAVITY Z (m/s²);LINEAR ACCELERATION X (m/s²);LINEAR ACCELERATION Y (m/s²);LINEAR ACCELERATION Z (m/s²);GYROSCOPE X (rad/s);GYROSCOPE Y (rad/s);GYROSCOPE Z (rad/s);LIGHT (lux);MAGNETIC FIELD X (μT);MAGNETIC FIELD Y (μT);MAGNETIC FIELD Z (μT);ORIENTATION Z (azimuth °);ORIENTATION X (pitch °);ORIENTATION Y (roll °);PROXIMITY (m);SOUND LEVEL (dB);LOCATION Latitude : ;LOCATION Longitude : ;LOCATION Altitude ( m);LOCATION Altitude-google ( m);LOCATION Speed ( Kmh);LOCATION Accuracy ( m);LOCATION ORIENTATION (°);Satellites in range;Time since start in ms ;YYYY-MO-DD HH-MI-SS_SSS
1.469;6.185;-13.868;4.295;-1.226;-8.729;2.704;1.231;-2.425;1.593;0.263;0.083;391.0;-4.7;-14.8;38.7;103.4;-22.0;-103.0;5.0;38.36;39.46889;-0.34092;69.4;NaN;;12.551;;0 / 28;8;2021-10-27 16:53:18:911
1.081;2.968;-7.42;3.486;-1.312;-9.074;-3.491;6.767;2.721;1.486;1.023;-0.9;391.0;-6.5;-9.5;39.7;144.2;16.0;-149.5;5.0;38.36;39.46889;-0.34092;69.4;NaN;;12.551;;0 / 28;58;2021-10-27 16:53:18:961
3.822;-0.651;-8.315;-2.222;-4.262;-8.547;-4.921;8.685;-1.552;2.405;-2.109;4.201;391.0;-7.7;-5.7;39.9;215.1;47.2;157.8;5.0;59.32;39.46889;-0.34092;69.4;NaN;;12.551;;0 / 28;109;2021-10-27 16:53:19:012
1.594;-1.263;-12.142;-3.745;5.181;-7.436;6.7;5.796;21.775;2.67;3.727;-6.07;391.0;-10.9;4.1;40.1;305.3;-31.9;153.3;5.0;59.32;39.46889;-0.34092;69.4;NaN;;12.551;;0 / 28;159;2021-10-27 16:53:19:062
-4.27;0.22;-10.137;3.63;8.073;4.219;-1.718;9.916;5.169;2.744;2.602;-5.345;367.0;-9.0;8.9;39.6;292.0;0.7;161.5;5.0;59.32;39.46889;-0.34092;69.4;NaN;;12.551;;0 / 28;209;2021-10-27 16:53:19:112
1.062;-2.204;-11.128;-1.748;-0.589;-9.634;-1.992;4.951;-0.648;2.049;0.109;-1.774;367.0;-5.5;13.7;39.4;345.3;-67.4;174.7;5.0;59.32;39.46889;-0.34092;69.4;NaN;;12.551;;0 / 28;258;2021-10-27 16:53:19:161
0.363;9.426;-12.296;4.209;-1.666;-8.701;-10.515;4.115;7.458;2.416;0.888;-0.369;367.0;-4.1;14.9;40.1;347.6;-0.6;-179.1;0.0;59.32;39.46889;-0.34092;69.4;NaN;;12.551;;0 / 28;309;2021-10-27 16:53:19:212
10.443;8.303;-12.257;3.232;-6.522;-6.574;-14.335;-2.576;3.379;-0.279;-1.613;1.401;367.0;-4.3;15.9;40.1;92.4;29.2;-134.4;0.0;59.32;39.46889;-0.34092;69.4;NaN;;12.551;;0 / 28;359;2021-10-27 16:53:19:262
2.972;1.311;-13.516;-1.968;3.405;-8.983;-2.674;0.779;2.759;-0.279;-1.613;1.401;367.0;-4.1;17.2;40.0;53.2;15.8;-163.5;0.0;64.54;39.46889;-0.34092;69.4;NaN;;12.551;;0 / 28;409;2021-10-27 16:53:19:312
-1.175;3.219;-8.913;3.582;1.307;-9.036;-1.401;2.056;-11.654;-0.811;-1.088;1.675;367.0;-3.7;17.8;39.4;334.4;-29.9;159.5;0.0;64.54;39.46889;-0.34092;69.4;NaN;;12.551;;0 / 28;458;2021-10-27 16:53:19:361
-1.445;0.45;-9.047;0.139;1.13;-9.74;0.028;3.045;0.769;0.134;-0.518;1.787;11.0;-3.0;18.4;38.9;19.0;-4.8;-164.9;0.0;64.54;39.46889;-0.34092;69.4;NaN;;12.551;;0 / 28;509;2021-10-27 16:53:19:412
-0.746;-0.392;-7.317;-0.603;0.915;-9.749;-0.575;3.632;-1.69;1.64;-0.31;-0.163;11.0;-2.5;20.6;36.8;350.9;-5.7;178.6;0.0;64.54;39.46889;-0.34092;69.4;NaN;;12.551;;0 / 28;559;2021-10-27 16:53:19:462
-0.275;-2.266;-9.902;-2.365;0.345;-9.51;-1.136;4.814;0.45;1.42;0.097;0.925;11.0;-2.0;22.3;36.1;338.2;-0.6;168.8;0.0;64.54;39.46889;-0.34092;69.4;NaN;;12.551;;0 / 28;609;2021-10-27 16:53:19:512
-0.804;-2.247;-9.191;-2.303;0.876;-9.491;-0.181;4.234;-0.25;1.956;0.211;0.443;11.0;-2.0;24.0;35.5;336.1;-4.0;165.0;0.0;64.54;39.46889;-0.34092;69.4;NaN;;12.551;;0 / 28;659;2021-10-27 16:53:19:562
-1.831;-2.558;-9.742;-2.442;1.666;-9.352;0.651;3.636;-0.055;1.769;0.138;0.318;11.0;-1.7;25.9;34.0;341.0;-7.0;166.5;0.0;64.54;39.46889;-0.34092;69.4;NaN;;12.551;;0 / 28;709;2021-10-27 16:53:19:612
-1.682;-2.238;-9.541;-2.193;1.614;-9.424;0.702;2.5;-0.289;1.521;-0.073;-0.068;11.0;-2.3;26.7;34.3;342.5;-10.3;166.0;0.0;64.57;39.46889;-0.34092;69.4;NaN;;12.551;;0 / 28;758;2021-10-27 16:53:19:661
-0.746;-1.591;-9.17;-1.666;0.699;-9.639;-0.307;1.325;-0.721;1.183;-0.111;-0.002;11.0;-2.3;27.3;33.7;345.3;-4.7;170.2;0.0;64.57;39.46889;-0.34092;69.4;NaN;;12.551;;0 / 28;809;2021-10-27 16:53:19:712
-1.158;-0.955;-9.868;-0.824;1.12;-9.706;0.205;0.331;0.254;0.827;-0.082;0.112;39.0;-2.2;27.4;33.2;346.9;-5.9;170.8;0.0;64.57;39.46889;-0.34092;69.4;NaN;;12.551;;0 / 28;859;2021-10-27 16:53:19:762
-1.316;-1.347;-10.321;-1.302;1.302;-9.634;-0.194;0.047;-0.056;0.409;0.055;0.454;39.0;-1.5;28.3;31.8;353.3;-6.6;175.1;0.0;64.57;39.46889;-0.34092;69.4;NaN;;12.551;;0 / 28;909;2021-10-27 16:53:19:812
-2.01;-0.72;-9.596;-0.69;1.935;-9.591;0.708;-0.019;0.51;0.136;0.053;0.47;39.0;-1.4;28.0;32.5;354.3;-11.4;175.9;0.0;64.57;39.46889;-0.34092;69.4;NaN;;12.551;;0 / 28;959;2021-10-27 16:53:19:862
-1.065;-0.639;-9.15;-0.599;1.006;-9.74;0.251;-0.041;-0.209;0.04;0.01;0.412;39.0;-1.9;27.1;34.3;349.8;-8.0;173.9;0.0;64.57;39.46889;-0.34092;69.4;NaN;;12.551;;0 / 28;1009;2021-10-27 16:53:19:912
-0.615;-1.701;-9.249;-1.791;0.69;-9.62;-0.429;-0.119;-0.494;0.04;0.01;0.412;39.0;-1.6;27.7;33.4;353.3;-3.6;177.3;0.0;57.7;39.46889;-0.34092;69.4;NaN;;12.551;;0 / 28;1059;2021-10-27 16:53:19:962
-0.828;-1.879;-8.815;-2.03;0.809;-9.562;-1.446;0.793;0.136;0.023;-0.02;0.289;39.0;-2.8;26.7;35.3;344.9;-4.0;169.5;0.0;57.7;39.46889;-0.34092;69.4;NaN;;12.551;;0 / 28;1108;2021-10-27 16:53:20:011
-1.881;-1.852;-12.652;-1.188;1.456;-9.625;0.7;0.881;2.952;0.273;0.35;0.468;39.0;-3.6;26.5;35.8;335.6;-6.1;164.7;0.0;57.7;39.46889;-0.34092;69.4;NaN;;12.551;;0 / 28;1159;2021-10-27 16:53:20:062
-3.066;-4.217;-12.332;-3.165;2.207;-9.017;2.073;2.559;3.317;0.353;0.052;-0.086;0.0;-4.0;26.0;35.9;338.6;-9.1;166.7;0.0;57.7;39.46889;-0.34092;69.4;NaN;;12.551;;0 / 28;1209;2021-10-27 16:53:20:112
-1.177;-2.039;-13.727;-1.264;0.79;-9.697;1.195;1.486;2.704;0.324;-0.26;-0.689;0.0;-4.1;26.0;36.1;338.8;-9.7;166.7;0.0;57.7;39.46889;-0.34092;69.4;NaN;;12.551;;0 / 28;1258;2021-10-27 16:53:20:161
-1.321;1.558;-10.505;1.226;2.021;-9.519;0.018;-2.202;1.136;-0.075;-0.343;-0.693;0.0;-4.2;25.6;36.3;352.1;-2.6;-179.7;0.0;57.7;39.46889;-0.34092;69.4;NaN;;12.551;;0 / 28;1308;2021-10-27 16:53:20:211
-0.438;2.06;-7.946;2.456;0.565;-9.476;-0.826;-3.282;-1.746;-0.589;-0.048;0.015;0.0;-2.0;24.1;36.8;13.0;-3.2;-167.6;0.0;62.61;39.46889;-0.34092;69.4;NaN;;12.551;;0 / 28;1359;2021-10-27 16:53:20:262
-0.919;1.737;-7.008;2.097;1.307;-9.491;-0.515;-2.747;-2.734;-1.089;0.134;0.502;0.0;-1.3;22.2;37.6;19.7;-4.6;-165.0;0.0;62.61;39.46889;-0.34092;69.4;NaN;;12.551;;0 / 28;1409;2021-10-27 16:53:20:312
-0.883;1.235;-9.131;1.288;0.953;-9.677;-0.347;-1.286;-0.995;-1.159;0.084;0.543;0.0;-0.7;18.9;39.1;13.7;-6.4;-170.2;0.0;62.61;39.46889;-0.34092;69.4;NaN;;12.551;;0 / 28;1458;2021-10-27 16:53:20:361
-1.129;1.85;-8.119;2.107;1.317;-9.491;0.083;-1.395;-1.5;-0.929;0.044;0.578;0.0;0.1;17.2;39.4;12.8;-6.4;-172.6;0.0;62.61;39.46889;-0.34092;69.4;NaN;;12.551;;0 / 28;1508;2021-10-27 16:53:20:411
-1.467;3.312;-8.313;3.74;1.427;-8.954;0.309;-2.646;-1.48;-0.731;0.014;0.548;0.0;1.9;15.4;39.5;34.4;-8.4;-162.2;0.0;62.61;39.46889;-0.34092;69.4;NaN;;12.551;;0 / 28;1559;2021-10-27 16:53:20:462
-0.689;2.8;-8.231;2.863;0.757;-9.352;-0.693;-1.41;-2.015;-0.588;-0.067;0.453;0.0;2.5;14.3;39.7;42.7;-2.9;-162.9;0.0;62.61;39.46889;-0.34092;69.4;NaN;;12.551;;0 / 28;1608;2021-10-27 16:53:20:511
-0.61;3.801;-7.121;4.602;0.718;-8.629;-0.465;-2.316;-2.49;-0.967;-0.14;0.642;0.0;3.7;13.6;40.0;46.1;-6.9;-156.2;0.0;62.61;39.46889;-0.34092;69.4;NaN;;12.551;;0 / 28;1659;2021-10-27 16:53:20:562
-0.392;2.75;-6.912;3.481;0.431;-9.16;-0.607;-1.171;-2.747;-0.967;-0.14;0.642;0.0;4.0;13.0;40.0;54.1;-4.6;-153.2;0.0;61.79;39.46889;-0.34092;69.4;NaN;;12.551;;0 / 28;1709;2021-10-27 16:53:20:612
-1.555;2.515;-8.317;3.021;1.762;-9.16;0.545;-0.489;-0.818;-0.842;-0.127;0.751;0.0;4.8;13.6;39.5;40.6;-5.6;-165.2;0.0;61.79;39.46889;-0.34092;69.4;NaN;;12.551;;0 / 28;1759;2021-10-27 16:53:20:662
-0.421;4.641;-8.406;4.846;0.393;-8.519;-0.695;-1.911;-1.09;-0.619;-0.142;0.658;0.0;5.3;14.3;38.9;52.7;-6.2;-151.8;0.0;61.79;39.46889;-0.34092;69.4;NaN;;12.551;;0 / 28;1808;2021-10-27 16:53:20:711
-0.325;4.516;-9.289;3.994;0.335;-8.95;-0.768;-1.327;-0.036;-0.671;-0.107;0.66;0.0;5.4;15.5;38.3;55.1;-1.6;-150.3;0.0;61.79;39.46889;-0.34092;69.4;NaN;;12.551;;0 / 28;1858;2021-10-27 16:53:20:761
-0.758;3.463;-8.576;3.62;0.733;-9.084;-0.304;-0.237;-0.78;-0.556;-0.097;0.603;0.0;5.8;15.9;38.2;49.4;-3.3;-156.2;0.0;61.79;39.46889;-0.34092;69.4;NaN;;12.551;;0 / 28;1909;2021-10-27 16:53:20:812
-0.414;1.79;-8.188;2.021;0.417;-9.586;-0.587;1.328;-0.497;-0.402;-0.07;0.534;0.0;5.5;16.6;38.0;34.5;-2.4;-168.1;0.0;61.79;39.46889;-0.34092;69.4;NaN;;12.551;;0 / 28;1959;2021-10-27 16:53:20:862
-1.618;3.358;-9.957;3.543;0.843;-9.103;0.04;-0.304;0.598;0.039;0.006;0.573;0.0;5.3;17.3;37.5;42.1;-6.6;-158.2;0.0;57.72;39.46889;-0.34092;69.4;NaN;;12.551;;0 / 28;2009;2021-10-27 16:53:20:912
-1.728;1.275;-10.086;1.221;1.887;-9.548;0.579;1.317;0.627;0.461;-0.096;0.151;0.0;5.5;18.6;37.5;37.2;-4.4;-164.9;0.0;57.72;39.46889;-0.34092;69.4;NaN;;12.551;;0 / 28;2059;2021-10-27 16:53:20:962
-1.967;-0.038;-9.715;-0.148;1.958;-9.61;1.166;3.074;0.66;0.644;-0.188;-0.138;0.0;5.5;19.9;37.6;19.3;-12.1;-175.1;0.0;57.72;39.46889;-0.34092;69.4;NaN;;12.551;;0 / 28;2109;2021-10-27 16:53:21:012
-2.561;-0.746;-13.241;-0.464;1.958;-9.596;1.247;3.387;2.956;0.899;-0.261;-0.392;0.0;5.1;20.9;39.2;6.2;-11.5;177.2;0.0;57.72;39.46889;-0.34092;69.4;NaN;;12.551;;0 / 28;2159;2021-10-27 16:53:21:062
-2.008;-0.675;-11.101;-0.575;1.724;-9.639;0.854;2.908;2.358;1.194;-0.273;-0.607;0.0;4.7;22.3;38.5;4.8;-10.1;176.2;0.0;57.72;39.46889;-0.34092;69.4;NaN;;12.551;;0 / 28;2208;2021-10-27 16:53:21:111
-1.881;-1.682;-9.62;-1.561;1.786;-9.515;0.574;2.446;0.788;1.081;-0.219;-0.524;0.0;4.4;23.3;37.8;6.7;-10.7;177.7;0.0;57.72;39.46889;-0.34092;69.4;NaN;;12.551;;0 / 28;2259;2021-10-27 16:53:21:162
-0.6;-0.102;-9.342;-0.043;0.613;-9.787;-0.741;1.349;-0.411;0.961;-0.114;-0.353;0.0;4.4;23.8;37.1;357.1;-8.8;171.5;0.0;57.72;39.46889;-0.34092;69.4;NaN;;12.551;;0 / 28;2309;2021-10-27 16:53:21:212
0.926;0.359;-9.457;0.881;-1.001;-9.716;-2.469;0.61;0.157;0.961;-0.114;-0.353;0.0;5.4;24.4;36.7;11.8;-1.6;-179.6;0.0;65.09;39.46889;-0.34092;69.4;NaN;;12.551;;0 / 28;2359;2021-10-27 16:53:21:262
-0.964;0.148;-9.296;0.215;0.919;-9.764;-0.297;-0.347;-0.003;0.407;0.24;0.379;0.0;6.0;23.8;37.1;23.7;-5.6;-170.5;0.0;65.09;39.46889;-0.34092;69.4;NaN;;12.551;;0 / 28;2408;2021-10-27 16:53:21:311
-1.608;-0.122;-10.105;-0.196;1.772;-9.644;0.644;0.644;0.287;0.407;0.24;0.379;0.0;5.2;23.3;37.0;15.0;-6.3;-176.6;0.0;65.09;39.46889;-0.34092;69.4;NaN;;12.551;;0 / 28;2459;2021-10-27 16:53:21:362
-1.079;-0.076;-9.62;0.043;1.034;-9.754;-0.054;0.302;0.047;0.005;0.196;0.395;0.0;7.2;23.5;36.8;11.8;-12.3;179.3;0.0;65.09;39.46889;-0.34092;69.4;NaN;;12.551;;0 / 28;2509;2021-10-27 16:53:21:412
-1.165;-0.215;-9.658;-0.081;1.12;-9.744;0.409;0.84;-0.349;0.108;-0.065;0.117;0.0;6.7;23.6;36.5;10.3;-9.2;177.5;0.0;65.09;39.46889;-0.34092;69.4;NaN;;12.551;;0 / 28;2559;2021-10-27 16:53:21:462
-0.864;-0.117;-9.986;-0.134;0.867;-9.768;-0.167;0.42;0.253;0.11;-0.085;0.076;0.0;6.7;23.5;36.5;12.7;-6.9;179.0;0.0;65.09;39.46889;-0.34092;69.4;NaN;;12.551;;0 / 28;2608;2021-10-27 16:53:21:511
-1.335;0.536;-9.639;0.517;1.326;-9.701;-0.117;0.059;-0.251;0.217;-0.039;0.152;0.0;7.0;23.8;36.2;14.9;-4.6;-179.8;0.0;55.18;39.46889;-0.34092;69.4;NaN;;12.551;;0 / 28;2659;2021-10-27 16:53:21:562
-1.577;0.124;-9.313;0.172;1.542;-9.682;0.319;-0.027;-0.579;0.133;-0.022;0.158;0.0;7.1;23.9;36.1;15.1;-10.0;-178.3;0.0;55.18;39.46889;-0.34092;69.4;NaN;;12.551;;0 / 28;2709;2021-10-27 16:53:21:612
-2.034;0.078;-9.32;0.512;1.494;-9.677;0.949;0.037;-0.563;0.07;-0.063;0.093;0.0;7.7;23.0;38.6;18.1;-11.3;-177.3;0.0;55.18;39.46889;-0.34092;69.4;NaN;;12.551;;0 / 28;2759;2021-10-27 16:53:21:662
-1.496;0.009;-10.117;-0.014;1.336;-9.716;0.414;0.066;0.367;-0.014;-0.084;0.066;0.0;7.9;23.0;38.5;16.5;-9.4;-179.1;0.0;55.18;39.46889;-0.34092;69.4;NaN;;12.551;;0 / 28;2809;2021-10-27 16:53:21:712
-1.419;0.325;-9.086;0.306;1.59;-9.673;0.081;-0.045;-0.103;-0.031;-0.133;0.003;0.0;8.2;22.7;38.6;16.2;-7.1;-180.0;0.0;55.18;39.46889;-0.34092;69.4;NaN;;12.551;;0 / 28;2859;2021-10-27 16:53:21:762
-1.378;0.433;-9.49;0.402;1.374;-9.701;-0.06;-0.285;-0.42;-0.026;-0.103;0.026;0.0;8.8;23.0;38.0;17.6;-8.3;-178.6;0.0;55.18;39.46889;-0.34092;69.4;NaN;;12.551;;0 / 28;2909;2021-10-27 16:53:21:812
-1.318;0.222;-10.034;0.211;1.293;-9.72;-0.117;-0.052;0.415;-0.005;-0.04;0.123;0.0;7.9;22.7;39.0;17.2;-8.1;-178.9;0.0;55.18;39.46889;-0.34092;69.4;NaN;;12.551;;0 / 28;2959;2021-10-27 16:53:21:862
-1.299;0.296;-9.799;0.292;1.355;-9.711;-0.067;-0.043;0.035;-0.003;-0.025;0.131;0.0;7.8;22.7;38.5;17.7;-7.7;-178.6;0.0;55.12;39.46889;-0.34092;69.4;NaN;;12.551;;0 / 28;3009;2021-10-27 16:53:21:912
-1.455;0.201;-9.682;0.192;1.475;-9.692;0.085;0.036;-0.049;0.004;0.027;0.17;0.0;8.3;22.5;39.1;19.2;-7.2;-178.1;0.0;55.12;39.46889;-0.34092;69.4;NaN;;12.551;;0 / 28;3059;2021-10-27 16:53:21:962
-1.541;0.236;-9.672;0.215;1.508;-9.687;0.16;-0.013;-0.036;0.004;0.027;0.17;0.0;8.1;22.8;38.8;17.2;-9.0;-178.6;0.0;55.12;39.46889;-0.34092;69.4;NaN;;12.551;;0 / 28;3109;2021-10-27 16:53:22:012
-1.594;0.225;-9.713;0.206;1.604;-9.673;0.226;0.032;-0.008;0.001;-0.001;0.063;0.0;8.6;23.3;38.3;17.1;-9.3;-178.6;0.0;55.12;39.46889;-0.34092;69.4;NaN;;12.551;;0 / 28;3159;2021-10-27 16:53:22:062
-1.644;0.114;-9.564;0.081;1.676;-9.663;0.258;0.14;-0.155;-0.004;-0.069;-0.062;0.0;7.0;23.0;38.9;16.9;-9.4;-178.8;0.0;55.12;39.46889;-0.34092;69.4;NaN;;12.551;;0 / 28;3208;2021-10-27 16:53:22:111
-1.507;0.186;-9.665;0.134;1.551;-9.682;0.223;0.122;-0.15;-0.003;-0.091;-0.114;0.0;7.5;23.2;38.6;16.5;-9.1;-179.2;0.0;55.12;39.46889;-0.34092;69.4;NaN;;12.551;;0 / 28;3259;2021-10-27 16:53:22:162
-1.493;0.22;-9.608;0.206;1.48;-9.692;-0.014;0.0;-0.034;0.007;-0.068;-0.108;0.0;8.1;23.3;38.5;17.3;-8.7;-178.7;0.0;52.73;39.46889;-0.34092;69.4;NaN;;12.551;;0 / 28;3309;2021-10-27 16:53:22:212
-1.539;0.21;-9.624;0.177;1.551;-9.682;-0.009;0.018;-0.031;0.007;-0.042;-0.103;0.0;8.2;23.4;38.3;17.2;-8.7;-178.8;0.0;52.73;39.46889;-0.34092;69.4;NaN;;12.551;;0 / 28;3359;2021-10-27 16:53:22:262
-1.496;0.146;-9.679;0.124;1.475;-9.697;-0.04;0.088;-0.015;0.014;-0.013;-0.023;0.0;8.1;23.3;38.2;16.6;-9.4;-179.0;0.0;52.73;39.46889;-0.34092;69.4;NaN;;12.551;;0 / 28;3409;2021-10-27 16:53:22:312
-1.369;0.165;-9.598;0.168;1.422;-9.701;-0.16;0.041;-0.029;0.022;0.016;0.049;0.0;8.4;23.7;37.9;16.5;-8.3;-179.0;0.0;52.73;39.46889;-0.34092;69.4;NaN;;12.551;;0 / 28;3458;2021-10-27 16:53:22:361
-1.46;0.16;-9.684;0.163;1.465;-9.697;-0.106;0.06;-0.031;0.032;0.027;0.113;0.0;8.7;23.8;37.7;17.7;-8.5;-179.4;0.0;52.73;39.46889;-0.34092;69.4;NaN;;12.551;;0 / 28;3509;2021-10-27 16:53:22:412
-1.555;0.181;-9.605;0.153;1.566;-9.682;0.075;-0.004;-0.102;0.033;0.026;0.126;0.0;8.2;23.5;37.9;17.1;-8.7;-178.9;0.0;52.73;39.46889;-0.34092;69.4;NaN;;12.551;;0 / 28;3559;2021-10-27 16:53:22:462
-1.548;0.184;-9.636;0.153;1.571;-9.677;0.069;0.033;-0.131;0.024;0.013;0.086;0.0;7.6;23.1;38.7;16.5;-9.2;-179.2;0.0;47.52;39.46889;-0.34092;69.4;NaN;;12.551;;0 / 28;3609;2021-10-27 16:53:22:512
-1.5;0.181;-9.703;0.177;1.489;-9.692;0.018;0.016;-0.022;0.021;0.011;0.072;0.0;7.7;23.5;38.3;16.4;-8.7;-179.0;0.0;47.52;39.46889;-0.34092;69.4;NaN;;12.551;;0 / 28;3659;2021-10-27 16:53:22:562
-1.515;0.138;-9.574;0.11;1.504;-9.692;-0.031;0.012;-0.117;0.01;-0.004;0.019;0.0;8.2;23.5;37.7;16.4;-8.7;-179.0;0.0;47.52;39.46889;-0.34092;69.4;NaN;;12.551;;0 / 28;3708;2021-10-27 16:53:22:611
-1.45;0.062;-9.66;0.067;1.446;-9.701;-0.051;0.09;-0.007;0.01;-0.004;0.019;0.0;8.5;23.6;37.9;16.0;-8.6;-179.3;0.0;47.52;39.46889;-0.34092;69.4;NaN;;12.551;;0 / 28;3759;2021-10-27 16:53:22:662
-1.474;0.205;-9.687;0.206;1.48;-9.692;-0.012;-0.049;-0.034;0.007;-0.003;-0.01;0.0;8.3;23.5;38.0;16.8;-8.5;-179.2;0.0;47.52;39.46889;-0.34092;69.4;NaN;;12.551;;0 / 28;3809;2021-10-27 16:53:22:712
-1.488;0.169;-9.591;0.11;1.556;-9.682;0.016;0.015;-0.075;0.008;0.002;0.011;0.0;6.9;23.4;38.6;16.6;-8.7;-178.9;0.0;47.52;39.46889;-0.34092;69.4;NaN;;12.551;;0 / 28;3859;2021-10-27 16:53:22:762
-1.567;0.114;-9.629;0.081;1.561;-9.682;0.043;0.081;-0.075;0.003;0.0;-0.017;0.0;7.0;23.5;38.9;14.3;-9.3;-179.4;0.0;47.52;39.46889;-0.34092;69.4;NaN;;12.551;;0 / 28;3908;2021-10-27 16:53:22:811
-1.409;0.179;-9.651;0.192;1.437;-9.701;-0.025;-0.003;-0.061;-0.001;-0.001;-0.034;0.0;7.7;23.5;39.0;16.3;-8.5;-179.1;0.0;39.01;39.46889;-0.34092;69.4;NaN;;12.551;;0 / 28;3959;2021-10-27 16:53:22:862
-1.512;0.179;-9.627;0.192;1.484;-9.692;-0.013;-0.045;-0.129;-0.012;-0.002;-0.094;0.0;7.8;23.2;39.2;16.9;-8.8;-179.0;0.0;39.01;39.46889;-0.34092;69.4;NaN;;12.551;;0 / 28;4008;2021-10-27 16:53:22:911
-1.56;0.165;-9.622;0.192;1.575;-9.677;0.053;-0.045;-0.047;-0.014;-0.002;-0.078;0.0;7.7;23.5;39.2;16.4;-9.2;-178.9;0.0;39.01;39.46889;-0.34092;69.4;NaN;;12.551;;0 / 28;4059;2021-10-27 16:53:22:962
-1.543;0.181;-9.603;0.163;1.551;-9.682;0.024;-0.024;-0.06;-0.025;-0.004;-0.054;0.0;7.5;23.7;39.2;16.4;-9.1;-178.9;0.0;39.01;39.46889;-0.34092;69.4;NaN;;12.551;;0 / 28;4109;2021-10-27 16:53:23:012
-1.527;0.15;-9.624;0.163;1.508;-9.687;-0.01;0.026;-0.086;-0.025;-0.011;-0.061;0.0;6.2;23.6;39.1;12.5;-8.9;-179.1;0.0;39.01;39.46889;-0.34092;69.4;NaN;;12.551;;0 / 28;4159;2021-10-27 16:53:23:062
-1.503;0.198;-9.632;0.148;1.532;-9.687;-0.046;-0.026;-0.044;-0.024;-0.021;-0.112;0.0;5.9;23.3;39.0;13.3;-8.7;-178.9;0.0;39.01;39.46889;-0.34092;69.4;NaN;;12.551;;0 / 28;4209;2021-10-27 16:53:23:112
-1.57;0.172;-9.655;0.139;1.547;-9.682;0.012;-0.024;-0.029;-0.047;-0.009;-0.292;0.0;7.1;23.6;39.2;13.0;-8.9;-179.0;0.0;36.37;39.46889;-0.34092;69.4;NaN;;12.551;;0 / 28;4259;2021-10-27 16:53:23:162
-1.522;0.193;-9.62;0.163;1.532;-9.687;-0.033;-0.025;-0.069;-0.039;-0.008;-0.258;0.0;6.8;23.6;39.4;14.2;-9.1;-179.2;0.0;36.37;39.46889;-0.34092;69.4;NaN;;12.551;;0 / 28;4309;2021-10-27 16:53:23:212
-1.534;0.184;-9.62;0.192;1.398;-9.706;-0.049;-0.025;-0.069;-0.039;-0.008;-0.258;0.0;6.8;23.0;39.4;15.3;-8.2;-178.9;0.0;36.37;39.46889;-0.34092;69.4;NaN;;12.551;;0 / 28;4358;2021-10-27 16:53:23:261
-1.582;0.186;-9.641;0.153;1.551;-9.682;0.02;-0.01;-0.041;-0.007;0.003;-0.023;0.0;8.3;23.6;39.2;16.4;-9.0;-178.9;0.0;36.37;39.46889;-0.34092;69.4;NaN;;12.551;;0 / 28;4409;2021-10-27 16:53:23:312
-1.522;0.203;-9.634;0.192;1.537;-9.682;-0.02;-0.009;-0.042;0.004;0.002;0.045;0.0;7.5;22.7;39.4;18.4;-8.9;-179.2;0.0;36.37;39.46889;-0.34092;69.4;NaN;;12.551;;0 / 28;4459;2021-10-27 16:53:23:362
-1.512;0.181;-9.605;0.177;1.518;-9.687;-0.06;-0.02;-0.083;0.012;0.0;0.109;0.0;7.3;22.9;39.5;14.6;-9.0;-179.3;0.0;36.37;39.46889;-0.34092;69.4;NaN;;12.551;;0 / 28;4508;2021-10-27 16:53:23:411
-1.551;0.179;-9.639;0.192;1.566;-9.677;-0.005;0.01;-0.096;0.013;-0.001;0.11;0.0;7.0;23.1;39.6;14.9;-9.1;-179.0;0.0;36.37;39.46889;-0.34092;69.4;NaN;;12.551;;0 / 28;4558;2021-10-27 16:53:23:461
-1.558;0.189;-9.591;0.206;1.58;-9.677;0.022;-0.031;-0.096;0.006;-0.003;0.049;0.0;6.6;23.1;39.6;15.1;-9.2;-178.8;0.0;40.09;39.46889;-0.34092;69.4;NaN;;12.551;;0 / 28;4608;2021-10-27 16:53:23:511
-1.567;0.222;-9.627;0.206;1.58;-9.677;0.02;-0.003;-0.014;-0.001;-0.006;0.003;0.0;9.4;23.6;39.3;16.4;-9.1;-178.9;0.0;40.09;39.46889;-0.34092;69.4;NaN;;12.551;;0 / 28;4659;2021-10-27 16:53:23:562
-1.558;0.22;-9.6;0.177;1.566;-9.677;0.027;-0.029;-0.095;0.003;-0.013;0.036;0.0;9.7;23.4;39.0;18.8;-9.2;-178.8;0.0;40.09;39.46889;-0.34092;69.4;NaN;;12.551;;0 / 28;4708;2021-10-27 16:53:23:611
-1.548;0.184;-9.593;0.192;1.566;-9.677;0.022;-0.013;-0.053;0.003;-0.014;0.061;0.0;9.8;23.3;38.7;20.4;-9.2;-178.9;0.0;40.09;39.46889;-0.34092;69.4;NaN;;12.551;;0 / 28;4759;2021-10-27 16:53:23:662
-1.778;0.026;-9.591;0.153;1.566;-9.682;0.029;-0.009;-0.066;0.046;-0.016;0.323;0.0;9.9;22.9;38.8;20.2;-9.0;-179.1;0.0;40.09;39.46889;-0.34092;69.4;NaN;;12.551;;0 / 28;4809;2021-10-27 16:53:23:712
-1.57;0.181;-9.622;0.192;1.561;-9.677;0.012;0.007;-0.106;0.048;-0.014;0.327;0.0;9.9;23.2;39.1;20.3;-9.3;-179.0;0.0;40.09;39.46889;-0.34092;69.4;NaN;;12.551;;0 / 28;4859;2021-10-27 16:53:23:762
-1.594;0.196;-9.608;0.192;1.604;-9.673;0.022;-0.019;-0.078;0.038;-0.011;0.254;0.0;9.6;23.3;39.2;20.5;-9.4;-178.8;0.0;35.97;39.46889;-0.34092;69.4;NaN;;12.551;;0 / 28;4909;2021-10-27 16:53:23:812
-1.541;0.193;-9.603;0.177;1.575;-9.677;-0.007;-0.004;-0.064;0.038;-0.011;0.254;0.0;9.5;23.4;39.2;18.6;-9.2;-179.0;0.0;35.97;39.46889;-0.34092;69.4;NaN;;12.551;;0 / 28;4959;2021-10-27 16:53:23:862
-1.586;0.191;-9.596;0.192;1.604;-9.673;0.004;-0.003;-0.064;0.017;-0.01;0.109;0.0;8.6;23.0;39.7;18.6;-9.2;-178.9;0.0;35.97;39.46889;-0.34092;69.4;NaN;;12.551;;0 / 28;5009;2021-10-27 16:53:23:912
-1.539;0.217;-9.629;0.22;1.571;-9.677;-0.003;-0.03;-0.022;0.017;-0.01;0.109;0.0;8.9;23.0;39.1;18.5;-9.5;-179.0;0.0;35.97;39.46889;-0.34092;69.4;NaN;;12.551;;0 / 28;5059;2021-10-27 16:53:23:962
-1.551;0.165;-9.593;0.192;1.585;-9.677;-0.046;0.025;-0.171;-0.006;-0.007;-0.034;0.0;9.6;23.1;39.2;20.8;-9.0;-178.6;0.0;35.97;39.46889;-0.34092;69.4;NaN;;12.551;;0 / 28;5109;2021-10-27 16:53:24:012
-1.594;0.191;-9.576;0.192;1.595;-9.673;0.183;0.094;-0.143;-0.005;-0.006;-0.031;0.0;8.9;23.2;38.9;17.6;-10.4;-179.4;0.0;35.97;39.46889;-0.34092;69.4;NaN;;12.551;;0 / 28;5159;2021-10-27 16:53:24:062
-1.579;0.21;-9.598;0.206;1.59;-9.673;0.014;-0.002;-0.047;-0.003;-0.008;-0.019;0.0;9.0;23.0;39.5;18.7;-9.3;-178.8;0.0;35.97;39.46889;-0.34092;69.4;NaN;;12.551;;0 / 28;5209;2021-10-27 16:53:24:112
-1.57;0.229;-9.598;0.206;1.618;-9.668;-0.035;-0.043;-0.073;-0.004;-0.017;-0.03;0.0;9.2;23.0;39.4;18.7;-9.2;-178.9;0.0;36.11;39.46889;-0.34092;69.4;NaN;;12.551;;0 / 28;5259;2021-10-27 16:53:24:162
-1.594;0.208;-9.61;0.192;1.618;-9.673;0.014;-0.002;-0.031;-0.004;-0.012;-0.026;0.0;9.2;22.9;39.7;18.7;-9.5;-178.8;0.0;36.11;39.46889;-0.34092;69.4;NaN;;12.551;;0 / 28;5309;2021-10-27 16:53:24:212
-1.543;0.205;-9.622;0.192;1.609;-9.673;-0.005;-0.002;-0.085;-0.005;-0.008;-0.025;0.0;8.6;23.0;39.4;18.1;-10.0;-179.1;0.0;36.11;39.46889;-0.34092;69.4;NaN;;12.551;;0 / 28;5359;2021-10-27 16:53:24:262
-1.608;0.22;-9.605;0.177;1.518;-9.687;-0.02;-0.001;-0.071;-0.009;-0.004;-0.035;0.0;8.6;22.8;39.1;18.4;-9.6;-179.0;0.0;36.11;39.46889;-0.34092;69.4;NaN;;12.551;;0 / 28;5409;2021-10-27 16:53:24:312
-1.572;0.189;-9.605;0.177;1.566;-9.677;-0.035;0.015;-0.084;-0.013;0.002;-0.058;0.0;8.5;22.9;38.6;16.8;-9.4;-178.9;0.0;36.11;39.46889;-0.34092;69.4;NaN;;12.551;;0 / 28;5459;2021-10-27 16:53:24:362
-1.603;0.201;-9.655;0.206;1.599;-9.673;-0.034;0.003;-0.03;-0.013;0.006;-0.068;0.0;8.5;22.9;38.6;16.6;-9.2;-179.0;0.0;36.11;39.46889;-0.34092;69.4;NaN;;12.551;;0 / 28;5509;2021-10-27 16:53:24:412
-1.613;0.196;-9.6;0.177;1.595;-9.673;-0.004;-0.024;-0.112;-0.009;0.004;-0.042;0.0;8.8;23.0;38.6;18.8;-9.5;-178.7;0.0;43.69;39.46889;-0.34092;69.4;NaN;;12.551;;0 / 28;5559;2021-10-27 16:53:24:462
-1.598;0.191;-9.6;0.081;1.729;-9.653;-0.044;0.044;-0.085;-0.009;0.004;-0.042;0.0;9.0;23.1;38.9;18.4;-9.3;-179.0;0.0;43.69;39.46889;-0.34092;69.4;NaN;;12.551;;0 / 28;5609;2021-10-27 16:53:24:512
-1.567;0.162;-9.612;0.163;1.58;-9.677;-0.016;0.017;-0.085;-0.002;0.002;-0.023;0.0;8.9;23.5;39.4;17.9;-9.4;-179.0;0.0;43.69;39.46889;-0.34092;69.4;NaN;;12.551;;0 / 28;5659;2021-10-27 16:53:24:562
-1.536;0.21;-9.667;0.177;1.571;-9.677;-0.057;-0.025;-0.031;-0.002;0.002;-0.023;0.0;8.8;23.6;39.5;17.9;-9.3;-179.0;0.0;43.69;39.46889;-0.34092;69.4;NaN;;12.551;;0 / 28;5709;2021-10-27 16:53:24:612
-1.584;0.172;-9.586;0.148;1.585;-9.677;-0.042;0.029;-0.072;0.001;0.005;-0.004;0.0;8.2;23.4;39.2;16.7;-9.3;-179.0;0.0;43.69;39.46889;-0.34092;69.4;NaN;;12.551;;0 / 28;5759;2021-10-27 16:53:24:662
-1.572;0.181;-9.62;0.148;1.575;-9.677;0.015;0.055;-0.045;0.001;0.008;-0.01;0.0;8.2;23.4;39.2;16.5;-9.3;-179.1;0.0;43.69;39.46889;-0.34092;69.4;NaN;;12.551;;0 / 28;5809;2021-10-27 16:53:24:712
-1.539;0.155;-9.665;0.148;1.547;-9.682;-0.049;-0.014;-0.073;-0.005;0.01;-0.06;0.0;8.3;23.4;38.9;17.0;-9.1;-178.8;0.0;43.69;39.46889;-0.34092;69.4;NaN;;12.551;;0 / 28;5859;2021-10-27 16:53:24:762
-1.543;0.21;-9.627;0.168;1.571;-9.677;-0.044;-0.017;-0.101;-0.007;0.011;-0.066;0.0;8.5;23.3;39.1;16.7;-9.3;-179.0;0.0;39.67;39.46889;-0.34092;69.4;NaN;;12.551;;0 / 28;5908;2021-10-27 16:53:24:811
-1.579;0.141;-9.632;0.148;1.532;-9.687;-0.053;0.036;-0.047;0.001;0.015;-0.014;0.0;8.7;23.1;38.8;18.4;-9.0;-179.1;0.0;39.67;39.46889;-0.34092;69.4;NaN;;12.551;;0 / 28;5959;2021-10-27 16:53:24:862
-1.524;0.155;-9.622;0.163;1.575;-9.677;-0.044;0.034;-0.062;0.006;0.015;0.006;0.0;8.8;23.1;38.6;18.1;-9.1;-179.3;0.0;39.67;39.46889;-0.34092;69.4;NaN;;12.551;;0 / 28;6008;2021-10-27 16:53:24:911
-1.572;0.177;-9.576;0.139;1.571;-9.677;0.017;0.016;-0.077;0.016;0.008;0.051;0.0;9.0;23.5;38.6;18.3;-9.2;-179.1;0.0;39.67;39.46889;-0.34092;69.4;NaN;;12.551;;0 / 28;6059;2021-10-27 16:53:24:962
-1.546;0.177;-9.646;0.148;1.561;-9.682;-0.021;0.027;-0.078;0.018;0.005;0.068;0.0;8.8;23.3;38.6;18.3;-9.2;-179.2;0.0;39.67;39.46889;-0.34092;69.4;NaN;;12.551;;0 / 28;6109;2021-10-27 16:53:25:012
-1.536;0.174;-9.62;0.124;1.537;-9.687;-0.007;0.051;-0.092;0.015;0.0;0.05;0.0;8.6;23.3;38.5;18.3;-9.0;-179.3;0.0;39.67;39.46889;-0.34092;69.4;NaN;;12.551;;0 / 28;6159;2021-10-27 16:53:25:062
-1.577;0.15;-9.615;0.139;1.575;-9.677;-0.021;0.02;-0.064;0.013;0.0;0.033;0.0;8.7;23.2;38.2;18.5;-9.1;-179.1;0.0;32.74;39.46889;-0.34092;69.4;NaN;;12.551;;0 / 28;6210;2021-10-27 16:53:25:113
-1.536;0.141;-9.651;0.139;1.532;-9.687;0.007;0.03;-0.092;0.013;0.001;0.034;0.0;8.8;23.1;38.5;18.5;-9.0;-179.1;0.0;32.74;39.46889;-0.34092;69.4;NaN;;12.551;;0 / 28;6258;2021-10-27 16:53:25:161
-1.522;0.157;-9.634;0.148;1.561;-9.682;-0.033;-0.003;-0.051;0.013;0.0;0.015;0.0;9.1;23.3;38.8;18.5;-9.1;-179.0;0.0;32.74;39.46889;-0.34092;69.4;NaN;;12.551;;0 / 28;6309;2021-10-27 16:53:25:212
-1.539;0.174;-9.612;0.139;1.537;-9.687;-0.033;0.02;-0.065;0.013;0.0;0.015;0.0;8.9;23.1;39.4;18.5;-9.0;-179.1;0.0;32.74;39.46889;-0.34092;69.4;NaN;;12.551;;0 / 28;6359;2021-10-27 16:53:25:262
-1.536;0.143;-9.636;0.139;1.547;-9.682;-0.032;0.005;-0.065;0.007;0.001;0.016;0.0;9.0;23.5;39.5;18.3;-9.0;-179.2;0.0;32.74;39.46889;-0.34092;69.4;NaN;;12.551;;0 / 28;6408;2021-10-27 16:53:25:311
-1.534;0.141;-9.629;0.177;1.528;-9.687;-0.032;-0.009;-0.092;0.003;0.001;0.02;0.0;8.6;23.5;39.2;18.1;-9.0;-179.0;0.0;32.74;39.46889;-0.34092;69.4;NaN;;12.551;;0 / 28;6459;2021-10-27 16:53:25:362
-1.553;0.177;-9.663;0.163;1.532;-9.687;-0.017;-0.022;-0.092;0.001;0.002;0.009;0.0;8.4;23.5;38.9;16.3;-9.0;-179.0;0.0;32.74;39.46889;-0.34092;69.4;NaN;;12.551;;0 / 28;6508;2021-10-27 16:53:25:411
-1.608;0.136;-9.593;0.11;1.571;-9.677;-0.03;-0.008;-0.106;-0.001;0.002;0.004;0.0;8.4;23.2;38.8;16.6;-9.1;-179.1;0.0;32.99;39.46889;-0.34092;69.4;NaN;;12.551;;0 / 28;6559;2021-10-27 16:53:25:462
-1.551;0.184;-9.605;0.177;1.561;-9.682;-0.042;-0.008;-0.052;-0.007;0.002;-0.043;0.0;8.5;23.0;38.8;16.4;-9.1;-179.3;0.0;32.99;39.46889;-0.34092;69.4;NaN;;12.551;;0 / 28;6609;2021-10-27 16:53:25:512
-1.546;0.174;-9.632;0.177;1.523;-9.687;-0.028;-0.021;-0.066;-0.006;0.002;-0.04;0.0;9.1;23.3;38.6;18.8;-8.9;-178.9;0.0;32.99;39.46889;-0.34092;69.4;NaN;;12.551;;0 / 28;6659;2021-10-27 16:53:25:562
-1.627;0.124;-9.603;0.192;1.46;-9.697;0.027;0.033;-0.093;-0.002;0.001;-0.01;0.0;9.3;23.3;39.1;18.3;-9.2;-179.2;0.0;32.99;39.46889;-0.34092;69.4;NaN;;12.551;;0 / 28;6709;2021-10-27 16:53:25:612
-1.534;0.189;-9.639;0.148;1.532;-9.687;0.027;0.034;-0.038;0.007;-0.002;0.056;0.0;9.3;23.5;39.1;18.1;-9.5;-179.3;0.0;32.99;39.46889;-0.34092;69.4;NaN;;12.551;;0 / 28;6758;2021-10-27 16:53:25:661
-1.536;0.143;-9.61;0.153;1.556;-9.682;-0.028;0.007;-0.079;0.015;-0.002;0.096;0.0;9.3;23.3;39.2;18.5;-9.2;-179.0;0.0;32.99;39.46889;-0.34092;69.4;NaN;;12.551;;0 / 28;6808;2021-10-27 16:53:25:711
-1.558;0.165;-9.608;0.148;1.561;-9.682;-0.015;-0.006;-0.065;0.014;-0.003;0.086;0.0;9.3;24.2;38.8;17.8;-9.2;-179.1;0.0;32.99;39.46889;-0.34092;69.4;NaN;;12.551;;0 / 28;6858;2021-10-27 16:53:25:761
-1.565;0.16;-9.612;0.148;1.59;-9.677;-0.029;-0.033;-0.106;0.014;-0.003;0.086;0.0;8.8;24.2;38.9;17.9;-9.4;-179.0;0.0;33.35;39.46889;-0.34092;69.4;NaN;;12.551;;0 / 28;6909;2021-10-27 16:53:25:812
-1.56;0.162;-9.608;0.148;1.585;-9.677;0.025;0.008;-0.038;0.014;-0.003;0.086;0.0;8.5;23.6;39.1;17.8;-9.2;-179.1;0.0;33.35;39.46889;-0.34092;69.4;NaN;;12.551;;0 / 28;6959;2021-10-27 16:53:25:862
-1.563;0.155;-9.632;0.163;1.561;-9.682;0.011;-0.005;-0.052;0.014;-0.003;0.086;0.0;8.5;23.3;39.2;17.8;-9.3;-179.1;0.0;33.35;39.46889;-0.34092;69.4;NaN;;12.551;;0 / 28;7009;2021-10-27 16:53:25:912
-1.541;0.193;-9.629;0.153;1.556;-9.682;-0.072;0.023;-0.024;-0.012;0.001;-0.073;0.0;8.9;23.4;39.1;18.6;-9.1;-179.0;0.0;33.35;39.46889;-0.34092;69.4;NaN;;12.551;;0 / 28;7059;2021-10-27 16:53:25:962
-1.551;0.162;-9.605;0.124;1.58;-9.677;-0.003;0.01;-0.038;-0.01;0.002;-0.063;0.0;8.6;23.9;38.9;17.9;-9.0;-179.1;0.0;33.35;39.46889;-0.34092;69.4;NaN;;12.551;;0 / 28;7109;2021-10-27 16:53:26:012
-1.591;0.179;-9.612;0.148;1.575;-9.677;0.011;0.009;-0.052;-0.007;0.002;-0.05;0.0;8.4;23.8;38.5;16.0;-9.1;-179.2;0.0;33.35;39.46889;-0.34092;69.4;NaN;;12.551;;0 / 28;7159;2021-10-27 16:53:26:062
-1.577;0.169;-9.653;0.163;1.575;-9.677;0.038;0.022;-0.079;-0.006;-0.001;-0.044;0.0;8.2;23.3;38.3;16.0;-9.3;-179.1;0.0;48.23;39.46889;-0.34092;69.4;NaN;;12.551;;0 / 28;7209;2021-10-27 16:53:26:112
-1.589;0.146;-9.636;0.177;1.561;-9.682;-0.004;-0.032;-0.065;-0.008;-0.002;-0.046;0.0;8.0;22.8;38.8;16.8;-9.2;-179.0;0.0;48.23;39.46889;-0.34092;69.4;NaN;;12.551;;3 / 28;7259;2021-10-27 16:53:26:162
-1.529;0.179;-9.627;0.192;1.561;-9.682;-0.007;-0.032;-0.037;-0.011;-0.006;-0.069;0.0;8.3;23.3;39.4;16.9;-9.1;-178.9;0.0;48.23;39.46902;-0.34092;20.0;NaN;0.0;11.9;0.0;3 / 28;7309;2021-10-27 16:53:26:212
-1.603;0.141;-9.608;0.153;1.604;-9.673;0.029;0.01;-0.105;-0.011;-0.006;-0.06;0.0;8.8;23.8;39.4;17.8;-9.2;-179.1;0.0;48.23;39.46902;-0.34092;20.0;NaN;0.0;11.9;0.0;3 / 28;7359;2021-10-27 16:53:26:262
-1.579;0.205;-9.596;0.177;1.575;-9.677;0.013;-0.031;-0.077;-0.009;-0.006;-0.05;0.0;8.8;24.0;39.1;17.6;-9.2;-179.3;0.0;48.23;39.46902;-0.34092;20.0;NaN;0.0;11.9;0.0;3 / 28;7409;2021-10-27 16:53:26:312
-1.586;0.198;-9.61;0.192;1.575;-9.677;-0.003;-0.017;-0.049;-0.007;-0.005;-0.036;0.0;9.1;23.6;38.8;18.1;-9.2;-178.9;0.0;48.23;39.46902;-0.34092;20.0;NaN;0.0;11.9;0.0;3 / 28;7459;2021-10-27 16:53:26:362
-1.534;0.294;-9.596;0.206;1.595;-9.673;0.021;-0.016;-0.062;0.003;-0.007;0.039;0.0;8.9;23.2;39.1;18.5;-9.4;-179.0;0.0;38.29;39.46902;-0.34092;20.0;NaN;0.0;11.9;0.0;3 / 28;7509;2021-10-27 16:53:26:412
-1.579;0.165;-9.627;0.177;1.575;-9.677;-0.009;-0.013;-0.062;0.003;-0.007;0.039;0.0;9.1;23.0;38.9;18.4;-9.3;-179.0;0.0;38.29;39.46902;-0.34092;20.0;NaN;0.0;11.9;0.0;3 / 28;7559;2021-10-27 16:53:26:462
-1.589;0.184;-9.605;0.192;1.58;-9.677;0.003;-0.011;-0.075;0.003;-0.007;0.039;0.0;8.8;23.0;38.8;18.4;-9.5;-179.0;0.0;38.29;39.46902;-0.34092;20.0;NaN;0.0;11.9;0.0;3 / 28;7608;2021-10-27 16:53:26:511
-1.606;0.181;-9.615;0.153;1.59;-9.677;0.001;0.003;-0.075;0.004;-0.004;0.036;0.0;8.4;23.7;38.8;16.1;-9.3;-179.0;0.0;38.29;39.46902;-0.34092;20.0;NaN;0.0;11.9;0.0;3 / 28;7659;2021-10-27 16:53:26:562
-1.596;0.174;-9.651;0.177;1.556;-9.682;-0.027;0.031;-0.075;0.002;-0.003;0.021;0.0;8.5;23.6;38.9;16.1;-9.4;-179.0;0.0;38.29;39.46902;-0.34092;20.0;NaN;0.0;11.9;0.0;3 / 28;7708;2021-10-27 16:53:26:611
-1.577;0.172;-9.6;0.177;1.604;-9.673;0.012;-0.05;-0.074;-0.007;-0.003;-0.041;0.0;8.6;23.6;38.8;18.1;-9.3;-178.9;0.0;38.29;39.46902;-0.34092;20.0;NaN;0.0;11.9;0.0;3 / 28;7758;2021-10-27 16:53:26:661
-1.577;0.162;-9.588;0.163;1.604;-9.673;0.009;-0.009;-0.115;-0.007;-0.006;-0.034;0.0;9.2;23.1;38.9;18.5;-9.4;-179.0;0.0;38.29;39.46902;-0.34092;20.0;NaN;0.0;11.9;0.0;3 / 28;7808;2021-10-27 16:53:26:711
-1.598;0.181;-9.627;0.163;1.618;-9.673;0.006;0.007;-0.06;-0.007;-0.005;-0.02;0.0;9.1;23.0;38.8;18.4;-9.2;-179.0;0.0;49.23;39.46902;-0.34092;20.0;NaN;0.0;11.9;0.0;3 / 28;7859;2021-10-27 16:53:26:762
-1.577;0.191;-9.579;0.192;1.618;-9.673;-0.023;-0.032;-0.087;0.001;-0.006;0.042;0.0;9.2;23.1;39.1;18.4;-9.4;-179.0;0.0;49.23;39.46902;-0.34092;20.0;NaN;0.0;11.9;0.0;3 / 28;7909;2021-10-27 16:53:26:812
-1.582;0.191;-9.615;0.192;1.604;-9.673;0.03;0.011;-0.073;0.009;-0.006;0.082;0.0;8.9;23.5;39.1;18.6;-9.3;-178.9;0.0;49.23;39.46902;-0.34092;20.0;NaN;0.0;11.9;0.0;3 / 28;7959;2021-10-27 16:53:26:862
-1.582;0.193;-9.612;0.177;1.59;-9.677;-0.041;-0.001;-0.086;0.005;-0.005;0.05;0.0;8.9;23.7;39.2;18.0;-9.4;-178.9;0.0;49.23;39.46902;-0.34092;20.0;NaN;0.0;11.9;0.0;3 / 28;8009;2021-10-27 16:53:26:912
-1.57;0.179;-9.603;0.177;1.595;-9.673;-0.015;0.0;-0.072;0.003;-0.005;0.031;0.0;8.6;23.3;39.4;18.5;-9.4;-179.0;0.0;49.23;39.46902;-0.34092;20.0;NaN;0.0;11.9;0.0;3 / 28;8058;2021-10-27 16:53:26:961
-1.589;0.193;-9.627;0.192;1.571;-9.677;-0.017;0.001;-0.004;-0.003;-0.002;-0.012;0.0;8.7;23.4;39.4;18.8;-9.2;-178.8;0.0;49.23;39.46902;-0.34092;20.0;NaN;0.0;11.9;0.0;3 / 28;8108;2021-10-27 16:53:27:011
-1.608;0.186;-9.548;0.067;1.853;-9.629;-0.031;-0.039;-0.153;-0.008;0.0;-0.044;0.0;8.5;23.2;39.1;18.8;-9.0;-178.8;0.0;33.07;39.46902;-0.34092;20.0;NaN;0.0;11.9;0.0;3 / 28;8159;2021-10-27 16:53:27:062
-1.606;0.198;-9.591;0.163;1.609;-9.673;-0.032;-0.013;-0.058;-0.01;0.0;-0.056;0.0;8.8;23.7;38.9;18.1;-9.5;-178.8;0.0;33.07;39.46902;-0.34092;20.0;NaN;0.0;11.9;0.0;3 / 28;8209;2021-10-27 16:53:27:112
-1.596;0.196;-9.596;0.206;1.58;-9.677;-0.035;-0.041;-0.057;-0.01;0.0;-0.056;0.0;8.8;23.9;38.5;18.1;-9.5;-178.9;0.0;33.07;39.46902;-0.34092;20.0;NaN;0.0;11.9;0.0;3 / 28;8258;2021-10-27 16:53:27:161
-1.618;0.198;-9.586;0.206;1.58;-9.677;-0.053;-0.014;-0.057;-0.003;-0.01;-0.029;0.0;8.9;23.9;38.6;18.2;-9.3;-178.8;0.0;33.07;39.46902;-0.34092;20.0;NaN;0.0;11.9;0.0;3 / 28;8309;2021-10-27 16:53:27:212
-1.622;0.16;-9.612;0.163;1.623;-9.673;0.001;0.026;-0.057;-0.001;-0.002;-0.012;0.0;8.9;23.8;38.8;17.9;-9.3;-179.0;0.0;33.07;39.46902;-0.34092;20.0;NaN;0.0;11.9;0.0;3 / 28;8358;2021-10-27 16:53:27:261
-1.634;0.184;-9.6;0.206;1.58;-9.677;0.001;-0.014;-0.084;0.002;0.001;0.016;0.0;8.6;23.6;38.9;18.0;-9.2;-179.0;0.0;33.07;39.46902;-0.34092;20.0;NaN;0.0;11.9;0.0;3 / 28;8408;2021-10-27 16:53:27:311
-1.615;0.179;-9.562;0.192;1.609;-9.673;-0.012;-0.011;-0.084;-0.002;0.001;0.011;0.0;8.5;23.3;39.1;16.9;-9.5;-178.8;0.0;43.9;39.46902;-0.34092;20.0;NaN;0.0;11.9;0.0;3 / 28;8459;2021-10-27 16:53:27:362
-1.582;0.198;-9.646;0.192;1.604;-9.673;-0.026;-0.009;-0.084;-0.008;-0.001;-0.012;0.0;8.2;23.4;39.1;16.8;-9.5;-178.9;0.0;43.9;39.46902;-0.34092;20.0;NaN;0.0;11.9;0.0;3 / 28;8508;2021-10-27 16:53:27:411
-1.577;0.169;-9.608;0.163;1.604;-9.673;-0.012;0.021;-0.07;-0.008;0.0;-0.023;0.0;8.5;23.5;38.9;18.2;-9.3;-178.8;0.0;43.9;39.46902;-0.34092;20.0;NaN;0.0;11.9;0.0;3 / 28;8559;2021-10-27 16:53:27:462
-1.613;0.203;-9.627;0.192;1.647;-9.668;-0.026;0.021;-0.084;-0.01;0.002;-0.051;0.0;8.2;23.5;38.9;16.7;-9.3;-179.0;0.0;43.9;39.46902;-0.34092;20.0;NaN;0.0;11.9;0.0;3 / 28;8609;2021-10-27 16:53:27:512
-1.603;0.205;-9.62;0.177;1.618;-9.673;-0.052;-0.02;-0.084;-0.007;0.003;-0.053;0.0;8.3;23.2;38.9;16.6;-9.5;-179.0;0.0;43.9;39.46902;-0.34092;20.0;NaN;0.0;11.9;0.0;3 / 28;8659;2021-10-27 16:53:27:562
-1.601;0.208;-9.61;0.192;1.566;-9.677;-0.038;-0.02;-0.084;-0.008;0.004;-0.047;0.0;8.2;23.0;38.9;16.9;-9.3;-178.8;0.0;43.9;39.46902;-0.34092;20.0;NaN;0.0;11.9;0.0;3 / 28;8708;2021-10-27 16:53:27:611
-1.594;0.193;-9.584;0.163;1.585;-9.677;0.004;0.021;-0.084;-0.008;0.002;-0.042;0.0;8.5;23.3;38.8;16.5;-9.4;-179.1;0.0;43.9;39.46902;-0.34092;20.0;NaN;0.0;11.9;0.0;3 / 28;8759;2021-10-27 16:53:27:662
-1.618;0.198;-9.605;0.206;1.604;-9.673;-0.077;-0.02;-0.098;-0.006;0.002;-0.034;0.0;8.6;23.3;38.6;18.4;-9.3;-179.0;0.0;36.92;39.46902;-0.34092;20.0;NaN;0.0;11.9;0.0;3 / 28;8809;2021-10-27 16:53:27:712
-1.591;0.198;-9.603;0.148;1.575;-9.677;-0.009;-0.02;-0.057;-0.006;0.002;-0.034;0.0;8.8;23.4;38.6;18.3;-9.2;-179.1;0.0;36.92;39.46902;-0.34092;20.0;NaN;0.0;11.9;0.0;3 / 28;8859;2021-10-27 16:53:27:762
-1.586;0.179;-9.615;0.192;1.604;-9.673;0.005;0.021;-0.071;-0.006;0.002;-0.034;0.0;8.6;23.3;38.8;18.6;-9.5;-178.9;0.0;36.92;39.46902;-0.34092;20.0;NaN;0.0;11.9;0.0;3 / 28;8908;2021-10-27 16:53:27:811
-1.589;0.179;-9.61;0.163;1.585;-9.677;-0.077;0.021;-0.057;0.008;-0.001;0.047;0.0;8.8;23.1;38.8;18.8;-9.2;-178.8;0.0;36.92;39.46902;-0.34092;20.0;NaN;0.0;11.9;0.0;3 / 28;8959;2021-10-27 16:53:27:862
-1.575;0.186;-9.584;0.177;1.566;-9.677;-0.049;-0.02;-0.003;0.01;0.001;0.061;0.0;9.1;23.0;38.8;18.5;-9.3;-179.0;0.0;36.92;39.46902;-0.34092;20.0;NaN;0.0;11.9;0.0;3 / 28;9009;2021-10-27 16:53:27:912
-1.627;0.186;-9.639;0.124;1.604;-9.673;0.048;0.089;-0.126;0.011;0.004;0.062;0.0;9.1;23.2;38.8;18.1;-9.4;-179.3;0.0;36.92;39.46902;-0.34092;20.0;NaN;0.0;11.9;0.0;3 / 28;9059;2021-10-27 16:53:27:962
-1.584;0.186;-9.574;0.177;1.59;-9.677;-0.045;-0.008;-0.058;0.014;0.003;0.057;0.0;8.9;23.3;38.9;18.7;-9.2;-178.9;0.0;37.74;39.46902;-0.34092;20.0;NaN;0.0;11.9;0.0;3 / 28;9108;2021-10-27 16:53:28:011
-1.575;0.196;-9.658;0.177;1.604;-9.673;-0.002;0.003;-0.072;0.012;0.002;0.05;0.0;9.1;23.4;38.9;18.7;-9.0;-178.9;0.0;37.74;39.46902;-0.34092;20.0;NaN;0.0;11.9;0.0;3 / 28;9159;2021-10-27 16:53:28:062
-1.627;0.172;-9.608;0.163;1.585;-9.677;-0.015;0.015;-0.045;0.012;0.001;0.048;0.0;9.2;23.2;38.6;18.5;-9.3;-179.0;0.0;37.74;39.46902;-0.34092;20.0;NaN;0.0;11.9;0.0;3 / 28;9209;2021-10-27 16:53:28:112
-1.57;0.179;-9.632;0.163;1.561;-9.682;0.0;0.013;-0.045;0.011;0.001;0.05;0.0;9.0;23.3;39.1;18.3;-9.2;-179.1;0.0;37.74;39.46902;-0.34093;13.6;NaN;0.0;11.9;0.0;3 / 28;9259;2021-10-27 16:53:28:162
-1.57;0.201;-9.584;0.177;1.566;-9.677;-0.054;0.012;-0.059;0.009;0.001;0.034;0.0;8.5;23.2;39.2;16.6;-9.4;-179.0;0.0;37.74;39.46902;-0.34093;13.6;NaN;0.0;11.9;0.0;3 / 28;9308;2021-10-27 16:53:28:211
-1.553;0.16;-9.646;0.163;1.575;-9.677;-0.026;0.024;-0.059;0.007;0.002;0.013;0.0;8.9;23.6;39.5;17.9;-9.2;-179.0;0.0;37.74;39.46902;-0.34093;13.6;NaN;0.0;11.9;0.0;3 / 28;9359;2021-10-27 16:53:28:262
-1.56;0.179;-9.622;0.163;1.551;-9.682;-0.039;-0.005;-0.059;0.0;0.004;-0.017;0.0;8.9;23.6;39.5;17.9;-9.2;-179.0;0.0;37.74;39.46902;-0.34093;13.6;NaN;0.0;11.9;0.0;3 / 28;9410;2021-10-27 16:53:28:313
-1.586;0.177;-9.636;0.177;1.58;-9.677;-0.061;0.021;-0.06;0.0;0.009;-0.022;0.0;9.4;23.6;39.2;17.9;-9.2;-179.0;0.0;33.37;39.46902;-0.34093;13.6;NaN;0.0;11.9;0.0;3 / 28;9458;2021-10-27 16:53:28:361
-1.577;0.174;-9.62;0.153;1.537;-9.687;-0.016;0.046;-0.074;0.003;0.01;-0.002;0.0;9.4;23.5;39.1;17.8;-9.3;-179.1;0.0;33.37;39.46902;-0.34093;13.6;NaN;0.0;11.9;0.0;3 / 28;9509;2021-10-27 16:53:28:412
-1.567;0.153;-9.593;0.153;1.58;-9.677;-0.012;0.017;-0.075;0.003;0.01;-0.002;0.0;9.1;23.4;38.9;18.3;-9.2;-179.1;0.0;33.37;39.46902;-0.34093;13.6;NaN;0.0;11.9;0.0;3 / 28;9559;2021-10-27 16:53:28:462
-1.563;0.184;-9.605;0.163;1.566;-9.677;-0.024;-0.012;-0.062;0.003;0.01;-0.002;0.0;9.6;23.3;38.8;18.4;-9.2;-179.1;0.0;33.37;39.46902;-0.34093;13.6;NaN;0.0;11.9;0.0;3 / 28;9609;2021-10-27 16:53:28:512
-1.551;0.153;-9.627;0.163;1.561;-9.682;-0.036;0.041;-0.076;0.016;0.003;0.07;0.0;9.3;23.5;38.9;17.9;-9.2;-179.0;0.0;33.37;39.46902;-0.34093;13.6;NaN;0.0;11.9;0.0;3 / 28;9659;2021-10-27 16:53:28:562
-1.548;0.169;-9.598;0.177;1.561;-9.682;-0.02;0.011;-0.062;0.015;0.002;0.058;0.0;9.1;23.6;38.9;17.9;-9.2;-179.0;0.0;33.37;39.46902;-0.34093;13.6;NaN;0.0;11.9;0.0;3 / 28;9709;2021-10-27 16:53:28:612
-1.541;0.15;-9.639;0.148;1.556;-9.682;-0.005;0.023;-0.076;0.014;0.002;0.053;0.0;8.9;23.5;39.2;18.3;-9.3;-179.1;0.0;30.54;39.46902;-0.34093;13.6;NaN;0.0;11.9;0.0;3 / 28;9759;2021-10-27 16:53:28:662
-1.563;0.174;-9.617;0.153;1.58;-9.677;-0.017;0.006;-0.104;0.006;0.003;0.017;0.0;9.0;23.9;39.4;17.9;-9.3;-179.0;0.0;30.54;39.46902;-0.34093;13.6;NaN;0.0;11.9;0.0;3 / 28;9809;2021-10-27 16:53:28:712
-1.546;0.146;-9.622;0.139;1.561;-9.682;-0.044;-0.022;-0.077;-0.001;0.002;-0.017;0.0;8.8;23.5;39.1;17.7;-9.2;-179.2;0.0;30.54;39.46902;-0.34093;13.6;NaN;0.0;11.9;0.0;3 / 28;9858;2021-10-27 16:53:28:761
-1.598;0.189;-9.703;0.163;1.571;-9.677;-0.002;-0.035;0.018;-0.01;0.002;-0.05;0.0;9.0;23.9;38.6;18.1;-9.2;-178.9;0.0;30.54;39.46902;-0.34093;13.6;NaN;0.0;11.9;0.0;3 / 28;9908;2021-10-27 16:53:28:811
-1.57;0.129;-9.593;0.139;1.595;-9.673;0.013;0.007;-0.091;-0.01;0.002;-0.039;0.0;9.2;23.7;38.8;17.9;-9.2;-179.0;0.0;30.54;39.46902;-0.34093;13.6;NaN;0.0;11.9;0.0;3 / 28;9958;2021-10-27 16:53:28:861
-1.555;0.162;-9.624;0.153;1.571;-9.677;-0.014;0.022;-0.077;-0.005;0.0;-0.022;0.0;9.4;23.5;39.1;17.3;-9.4;-179.4;0.0;30.54;39.46902;-0.34093;13.6;NaN;0.0;11.9;0.0;3 / 28;10009;2021-10-27 16:53:28:912
-1.541;0.153;-9.651;0.139;1.532;-9.687;-0.001;-0.005;-0.063;0.0;-0.001;0.003;0.0;8.8;23.6;39.2;17.9;-9.2;-179.0;0.0;32.92;39.46902;-0.34093;13.6;NaN;0.0;11.9;0.0;3 / 28;10059;2021-10-27 16:53:28:962
-1.575;0.169;-9.598;0.177;1.575;-9.677;-0.002;-0.019;-0.063;0.004;-0.001;0.016;0.0;8.4;23.4;38.9;16.7;-9.2;-179.0;0.0;32.92;39.46902;-0.34093;13.6;NaN;0.0;11.9;0.0;3 / 28;10109;2021-10-27 16:53:29:012
-1.536;0.169;-9.629;0.153;1.551;-9.682;-0.029;0.008;-0.063;0.004;-0.001;0.016;0.0;8.2;23.6;38.5;16.4;-9.3;-179.2;0.0;32.92;39.46902;-0.34093;13.6;NaN;0.0;11.9;0.0;3 / 28;10159;2021-10-27 16:53:29:062
-1.57;0.155;-9.622;0.148;1.561;-9.682;-0.002;0.009;-0.063;-0.01;0.0;-0.06;0.0;8.2;23.5;38.5;16.3;-9.0;-179.0;0.0;32.92;39.46902;-0.34093;13.6;NaN;0.0;11.9;0.0;3 / 28;10209;2021-10-27 16:53:29:112
-1.577;0.148;-9.584;0.124;1.59;-9.677;-0.043;0.023;-0.063;-0.02;0.002;-0.12;0.0;8.2;23.6;38.8;16.1;-9.2;-179.1;0.0;32.92;39.46901;-0.34093;9.1;NaN;0.0;11.9;0.0;3 / 28;10259;2021-10-27 16:53:29:162
-1.56;0.174;-9.612;0.163;1.561;-9.682;-0.015;-0.019;-0.077;-0.014;0.004;-0.088;0.0;8.6;23.6;38.6;17.9;-9.1;-179.0;0.0;32.92;39.46901;-0.34093;9.1;NaN;0.0;11.9;0.0;3 / 28;10309;2021-10-27 16:53:29:212
-1.57;0.134;-9.641;0.163;1.532;-9.687;-0.028;0.008;-0.077;-0.008;0.004;-0.058;0.0;8.2;23.3;39.1;16.6;-9.2;-179.0;0.0;32.92;39.46901;-0.34093;9.1;NaN;0.0;11.9;0.0;3 / 28;10359;2021-10-27 16:53:29:262
-1.579;0.162;-9.598;0.163;1.59;-9.677;-0.04;0.007;-0.077;-0.006;0.004;-0.051;0.0;8.5;23.1;39.1;18.6;-9.2;-179.0;0.0;32.05;39.46901;-0.34093;9.1;NaN;0.0;11.9;0.0;3 / 28;10409;2021-10-27 16:53:29:312
-1.546;0.193;-9.615;0.11;1.547;-9.682;0.015;0.034;-0.05;0.001;0.002;-0.021;0.0;8.2;23.6;39.2;16.0;-9.2;-179.1;0.0;32.05;39.46901;-0.34093;9.1;NaN;0.0;11.9;0.0;3 / 28;10459;2021-10-27 16:53:29:362
-1.57;0.16;-9.634;0.139;1.561;-9.682;-0.011;0.004;-0.078;0.002;0.002;-0.015;0.0;8.8;23.4;39.1;18.4;-9.2;-179.0;0.0;32.05;39.46901;-0.34093;9.1;NaN;0.0;11.9;0.0;3 / 28;10508;2021-10-27 16:53:29:411
-1.575;0.136;-9.615;0.148;1.561;-9.682;-0.011;-0.012;-0.05;0.007;-0.001;0.015;0.0;8.8;23.4;38.9;18.5;-9.1;-179.0;0.0;32.05;39.46901;-0.34093;9.1;NaN;0.0;11.9;0.0;3 / 28;10559;2021-10-27 16:53:29:462
-1.62;0.105;-9.62;0.163;1.58;-9.677;0.016;-0.013;-0.037;0.007;-0.001;0.033;0.0;9.0;22.9;38.9;18.3;-9.2;-179.1;0.0;32.05;39.46901;-0.34093;9.1;NaN;0.0;11.9;0.0;3 / 28;10610;2021-10-27 16:53:29:513
-1.572;0.174;-9.632;0.139;1.537;-9.682;0.003;0.013;-0.105;0.008;0.001;0.059;0.0;8.8;23.0;38.9;18.3;-9.3;-179.2;0.0;32.05;39.46901;-0.34093;9.1;NaN;0.0;11.9;0.0;3 / 28;10659;2021-10-27 16:53:29:562
-1.567;0.15;-9.603;0.124;1.551;-9.682;-0.023;0.016;-0.078;0.003;0.002;0.049;0.0;8.6;22.8;39.1;18.4;-9.0;-179.1;0.0;30.46;39.46901;-0.34093;9.1;NaN;0.0;11.9;0.0;3 / 28;10709;2021-10-27 16:53:29:612
-1.575;0.146;-9.61;0.124;1.609;-9.673;-0.008;-0.01;-0.092;0.003;0.003;0.047;0.0;8.5;23.3;38.8;18.1;-9.4;-179.3;0.0;30.46;39.46901;-0.34093;9.1;NaN;0.0;11.9;0.0;3 / 28;10759;2021-10-27 16:53:29:662
-1.584;0.165;-9.665;0.177;1.571;-9.677;0.035;-0.023;-0.038;0.0;0.0;0.0;0.0;8.3;23.8;39.1;16.1;-9.3;-179.0;0.0;30.46;39.46901;-0.34093;9.1;NaN;0.0;11.9;0.0;3 / 28;10809;2021-10-27 16:53:29:712
-1.601;0.129;-9.586;0.124;1.652;-9.668;0.02;0.033;-0.105;0.0;0.0;0.0;0.0;8.5;23.8;39.1;18.1;-9.3;-178.9;0.0;30.46;39.46901;-0.34093;9.1;NaN;0.0;11.9;0.0;3 / 28;10859;2021-10-27 16:53:29:762
-1.558;0.179;-9.608;0.139;1.58;-9.677;0.002;0.019;-0.077;-0.007;-0.012;-0.051;0.0;8.7;23.9;39.4;17.5;-9.7;-179.3;0.0;30.46;39.46901;-0.34093;9.1;NaN;0.0;11.9;0.0;3 / 28;10909;2021-10-27 16:53:29:812
-1.565;0.172;-9.641;0.192;1.566;-9.677;-0.019;-0.009;-0.036;-0.005;-0.012;-0.046;0.0;8.7;23.6;38.9;17.8;-9.2;-179.1;0.0;30.46;39.46901;-0.34093;9.1;NaN;0.0;11.9;0.0;3 / 28;10959;2021-10-27 16:53:29:862
-1.579;0.172;-9.608;0.206;1.566;-9.677;-0.008;-0.011;-0.076;-0.001;-0.007;-0.024;0.0;8.8;23.4;38.9;18.5;-9.3;-179.0;0.0;36.42;39.46901;-0.34093;9.1;NaN;0.0;11.9;0.0;3 / 28;11009;2021-10-27 16:53:29:912
-1.589;0.138;-9.641;0.148;1.599;-9.673;0.003;0.03;-0.089;0.001;-0.003;0.005;0.0;8.8;23.4;38.8;17.7;-9.4;-179.2;0.0;36.42;39.46901;-0.34093;9.1;NaN;0.0;11.9;0.0;3 / 28;11059;2021-10-27 16:53:29:962
-1.575;0.179;-9.612;0.177;1.551;-9.682;-0.038;-0.011;-0.062;0.003;0.001;0.022;0.0;8.9;23.6;39.2;18.3;-9.4;-179.1;0.0;36.42;39.46901;-0.34093;9.1;NaN;0.0;11.9;0.0;3 / 28;11109;2021-10-27 16:53:30:012
-1.589;0.172;-9.629;0.163;1.561;-9.682;-0.023;-0.023;-0.048;0.001;0.001;0.029;0.0;9.1;23.2;39.4;18.6;-9.2;-179.0;0.0;36.42;39.46901;-0.34093;9.1;NaN;0.0;11.9;0.0;3 / 28;11159;2021-10-27 16:53:30:062
-1.563;0.169;-9.627;0.163;1.575;-9.677;-0.009;-0.007;-0.089;0.002;0.001;0.038;0.0;9.4;23.5;39.2;17.9;-9.3;-179.0;0.0;36.42;39.46901;-0.34093;9.1;NaN;0.0;11.9;0.0;3 / 28;11209;2021-10-27 16:53:30:112
-1.613;0.174;-9.591;0.153;1.633;-9.668;-0.009;-0.018;-0.062;0.004;-0.001;0.057;0.0;9.2;23.8;39.1;18.0;-9.4;-178.9;0.0;36.42;39.46901;-0.34093;6.2;NaN;0.0;11.9;0.0;3 / 28;11259;2021-10-27 16:53:30:162
-1.589;0.186;-9.605;0.177;1.604;-9.673;-0.009;-0.03;-0.062;0.007;-0.004;0.069;0.0;9.2;24.0;38.9;17.7;-9.4;-179.1;0.0;36.42;39.46901;-0.34093;6.2;NaN;0.0;11.9;0.0;3 / 28;11309;2021-10-27 16:53:30:212
-1.591;0.162;-9.62;0.163;1.59;-9.677;-0.011;0.0;-0.048;0.002;-0.003;0.038;0.0;8.7;23.7;38.9;17.9;-9.3;-179.0;0.0;32.73;39.46901;-0.34093;6.2;NaN;0.0;11.9;0.0;3 / 28;11359;2021-10-27 16:53:30:262
-1.57;0.157;-9.605;0.163;1.575;-9.677;0.002;0.014;-0.061;0.002;-0.003;0.029;0.0;8.8;23.3;38.9;18.5;-9.4;-179.0;0.0;32.73;39.46901;-0.34093;6.2;NaN;0.0;11.9;0.0;3 / 28;11409;2021-10-27 16:53:30:312
-1.531;0.184;-9.629;0.163;1.551;-9.682;0.015;0.015;-0.075;0.002;-0.003;0.029;0.0;9.0;23.2;39.2;18.4;-9.5;-179.0;0.0;32.73;39.46901;-0.34093;6.2;NaN;0.0;11.9;0.0;3 / 28;11459;2021-10-27 16:53:30:362
-1.603;0.198;-9.636;0.206;1.633;-9.668;-0.013;-0.025;-0.075;0.002;-0.003;0.029;0.0;9.1;23.3;39.2;18.5;-9.5;-179.0;0.0;32.73;39.46901;-0.34093;6.2;NaN;0.0;11.9;0.0;3 / 28;11509;2021-10-27 16:53:30:412
-1.591;0.177;-9.622;0.206;1.618;-9.673;-0.014;-0.011;-0.061;0.002;-0.003;0.029;0.0;9.5;23.6;39.5;18.1;-9.5;-178.8;0.0;32.73;39.46901;-0.34093;6.2;NaN;0.0;11.9;0.0;3 / 28;11559;2021-10-27 16:53:30:462
-1.586;0.179;-9.586;0.192;1.614;-9.673;0.013;0.017;-0.116;-0.001;-0.001;0.008;0.0;9.6;23.6;39.2;19.5;-9.5;-179.0;0.0;32.73;39.46901;-0.34093;6.2;NaN;0.0;11.9;0.0;3 / 28;11608;2021-10-27 16:53:30:511
-1.584;0.184;-9.608;0.192;1.59;-9.677;0.026;0.046;-0.075;0.01;-0.003;0.068;0.0;9.6;23.6;39.1;17.9;-9.2;-179.0;0.0;33.78;39.46901;-0.34093;6.2;NaN;0.0;11.9;0.0;3 / 28;11659;2021-10-27 16:53:30:562
-1.555;0.191;-9.605;0.177;1.585;-9.677;-0.002;-0.022;-0.061;0.01;-0.004;0.067;0.0;9.1;23.8;38.5;18.1;-9.4;-178.8;0.0;33.78;39.46901;-0.34093;6.2;NaN;0.0;11.9;0.0;3 / 28;11708;2021-10-27 16:53:30:611
-1.625;0.172;-9.615;0.163;1.623;-9.673;0.009;0.032;-0.101;0.003;-0.01;0.019;0.0;9.1;23.7;38.8;17.8;-9.5;-179.0;0.0;33.78;39.46901;-0.34093;6.2;NaN;0.0;11.9;0.0;3 / 28;11759;2021-10-27 16:53:30:662
-1.548;0.203;-9.655;0.192;1.599;-9.673;-0.038;-0.049;-0.005;0.002;-0.01;0.015;0.0;9.1;23.8;38.5;17.8;-9.6;-179.1;0.0;33.78;39.46901;-0.34093;6.2;NaN;0.0;11.9;0.0;3 / 28;11808;2021-10-27 16:53:30:711
-1.589;0.198;-9.617;0.177;1.58;-9.677;0.0;-0.008;-0.072;-0.004;-0.006;-0.016;0.0;8.8;23.6;38.8;18.2;-9.3;-178.8;0.0;33.78;39.46901;-0.34093;6.2;NaN;0.0;11.9;0.0;3 / 28;11859;2021-10-27 16:53:30:762
-1.598;0.189;-9.572;0.177;1.59;-9.677;0.01;-0.007;-0.113;-0.011;-0.005;-0.044;0.0;8.7;23.6;38.6;18.6;-9.3;-178.9;0.0;33.78;39.46901;-0.34093;6.2;NaN;0.0;11.9;0.0;3 / 28;11908;2021-10-27 16:53:30:811
-1.596;0.203;-9.67;0.177;1.595;-9.677;0.035;-0.005;-0.071;-0.015;-0.004;-0.066;0.0;8.8;23.4;38.9;18.5;-9.4;-179.0;0.0;33.78;39.46901;-0.34093;6.2;NaN;0.0;11.9;0.0;3 / 28;11959;2021-10-27 16:53:30:862
-1.608;0.198;-9.593;0.177;1.638;-9.668;-0.022;-0.017;-0.085;-0.014;-0.004;-0.068;0.0;8.8;23.3;39.2;18.5;-9.5;-179.0;0.0;33.95;39.46901;-0.34093;6.2;NaN;0.0;11.9;0.0;3 / 28;12009;2021-10-27 16:53:30:912
-1.601;0.181;-9.61;0.177;1.595;-9.673;-0.011;0.011;-0.057;-0.012;-0.004;-0.061;0.0;8.8;23.4;39.2;18.1;-9.3;-178.9;0.0;33.95;39.46901;-0.34093;6.2;NaN;0.0;11.9;0.0;3 / 28;12059;2021-10-27 16:53:30:962
-1.591;0.169;-9.598;0.192;1.604;-9.673;-0.013;-0.028;-0.043;-0.01;-0.002;-0.051;0.0;8.9;23.6;39.1;18.4;-9.5;-179.0;0.0;33.95;39.46901;-0.34093;6.2;NaN;0.0;11.9;0.0;3 / 28;12109;2021-10-27 16:53:31:012
-1.618;0.177;-9.629;0.192;1.59;-9.677;-0.028;-0.014;-0.043;-0.009;-0.002;-0.047;0.0;9.2;23.7;39.1;17.8;-9.5;-179.0;0.0;33.95;39.46901;-0.34093;6.2;NaN;0.0;11.9;0.0;3 / 28;12159;2021-10-27 16:53:31:062
-1.579;0.167;-9.608;0.177;1.59;-9.677;-0.014;-0.027;-0.084;-0.002;0.001;0.007;0.0;9.6;23.6;39.2;19.8;-9.4;-178.8;0.0;33.95;39.46901;-0.34093;6.2;NaN;0.0;11.9;0.0;3 / 28;12209;2021-10-27 16:53:31:112
-1.618;0.181;-9.596;0.163;1.609;-9.673;-0.013;0.016;-0.084;0.004;0.0;0.045;0.0;9.1;23.6;39.4;18.0;-9.4;-178.9;0.0;33.95;39.46901;-0.34092;4.9;NaN;0.0;11.9;0.0;3 / 28;12258;2021-10-27 16:53:31:161
-1.63;0.186;-9.6;0.163;1.618;-9.673;0.0;0.003;-0.07;0.006;-0.001;0.046;0.0;8.9;23.8;39.7;17.8;-9.4;-179.0;0.0;38.88;39.46901;-0.34092;4.9;NaN;0.0;11.9;0.0;3 / 28;12309;2021-10-27 16:53:31:212
-1.601;0.186;-9.524;0.192;1.58;-9.677;0.0;-0.01;-0.097;0.003;-0.001;0.024;0.0;8.6;23.8;39.1;17.8;-9.4;-179.0;0.0;38.88;39.46901;-0.34092;4.9;NaN;0.0;11.9;0.0;3 / 28;12359;2021-10-27 16:53:31:262
-1.618;0.196;-9.598;0.192;1.628;-9.668;-0.014;0.003;-0.084;-0.002;0.0;-0.011;0.0;8.6;23.7;38.9;18.1;-9.3;-178.9;0.0;38.88;39.46901;-0.34092;4.9;NaN;0.0;11.9;0.0;3 / 28;12409;2021-10-27 16:53:31:312
-1.591;0.179;-9.608;0.177;1.575;-9.677;-0.055;-0.023;-0.056;-0.011;0.001;-0.063;0.0;8.8;23.1;39.1;18.6;-9.5;-178.9;0.0;38.88;39.46901;-0.34092;4.9;NaN;0.0;11.9;0.0;3 / 28;12459;2021-10-27 16:53:31:362
-1.57;0.177;-9.632;0.163;1.599;-9.673;-0.028;0.032;-0.056;-0.01;0.002;-0.053;0.0;8.8;23.2;39.7;18.6;-9.2;-179.0;0.0;38.88;39.46901;-0.34092;4.9;NaN;0.0;11.9;0.0;3 / 28;12509;2021-10-27 16:53:31:412
-1.575;0.193;-9.608;0.192;1.542;-9.682;-0.041;-0.023;-0.043;-0.005;0.002;-0.031;0.0;8.9;23.3;39.4;18.7;-9.0;-178.9;0.0;38.88;39.46901;-0.34092;4.9;NaN;0.0;11.9;0.0;3 / 28;12559;2021-10-27 16:53:31:462
-1.618;0.146;-9.61;0.163;1.647;-9.668;0.016;0.059;-0.098;-0.001;0.005;-0.008;0.0;9.1;23.6;39.2;17.6;-9.8;-179.1;0.0;38.88;39.46901;-0.34092;4.9;NaN;0.0;11.9;0.0;3 / 28;12609;2021-10-27 16:53:31:512
-1.601;0.203;-9.579;0.192;1.618;-9.668;0.004;0.003;-0.084;0.006;0.002;0.008;0.0;8.6;23.6;39.1;17.9;-9.5;-179.0;0.0;32.24;39.46901;-0.34092;4.9;NaN;0.0;11.9;0.0;3 / 28;12659;2021-10-27 16:53:31:562
-1.543;0.169;-9.622;0.192;1.551;-9.682;-0.037;-0.012;-0.084;0.004;0.001;0.007;0.0;8.4;23.3;39.2;18.6;-9.5;-178.9;0.0;32.24;39.46901;-0.34092;4.9;NaN;0.0;11.9;0.0;3 / 28;12709;2021-10-27 16:53:31:612
-1.62;0.162;-9.62;0.148;1.618;-9.673;-0.009;-0.04;-0.098;0.004;0.001;0.007;0.0;8.3;23.4;39.2;16.5;-9.5;-179.1;0.0;32.24;39.46901;-0.34092;4.9;NaN;0.0;11.9;0.0;3 / 28;12759;2021-10-27 16:53:31:662
-1.608;0.174;-9.622;0.163;1.618;-9.673;-0.023;0.002;-0.044;-0.011;0.001;-0.05;0.0;8.5;23.3;38.8;18.5;-9.3;-179.0;0.0;32.24;39.46901;-0.34092;4.9;NaN;0.0;11.9;0.0;3 / 28;12809;2021-10-27 16:53:31:712
-1.598;0.193;-9.598;0.192;1.618;-9.673;0.005;-0.01;-0.057;-0.011;0.001;-0.05;0.0;8.8;23.5;38.9;18.8;-9.3;-178.8;0.0;32.24;39.46901;-0.34092;4.9;NaN;0.0;11.9;0.0;3 / 28;12858;2021-10-27 16:53:31:761
-1.586;0.169;-9.61;0.177;1.575;-9.677;0.005;0.018;-0.084;-0.005;0.0;-0.024;0.0;8.6;23.3;38.8;18.4;-9.4;-179.0;0.0;32.24;39.46901;-0.34092;4.9;NaN;0.0;11.9;0.0;3 / 28;12909;2021-10-27 16:53:31:812
-1.586;0.189;-9.605;0.177;1.604;-9.673;-0.01;0.018;-0.057;-0.002;-0.002;-0.013;0.0;8.7;23.2;38.9;18.5;-9.4;-179.0;0.0;35.36;39.46901;-0.34092;4.9;NaN;0.0;11.9;0.0;3 / 28;12959;2021-10-27 16:53:31:862
-1.565;0.208;-9.596;0.192;1.633;-9.668;-0.039;-0.038;-0.084;0.005;-0.003;0.016;0.0;9.0;23.4;39.1;18.4;-9.4;-179.0;0.0;35.36;39.46901;-0.34092;4.9;NaN;0.0;11.9;0.0;3 / 28;13009;2021-10-27 16:53:31:912
-1.582;0.155;-9.615;0.153;1.58;-9.677;-0.013;0.016;-0.111;0.008;-0.002;0.036;0.0;9.4;23.3;38.8;18.7;-9.4;-178.8;0.0;35.36;39.46901;-0.34092;4.9;NaN;0.0;11.9;0.0;3 / 28;13059;2021-10-27 16:53:31:962
-1.61;0.169;-9.646;0.148;1.575;-9.677;0.0;0.015;-0.056;0.015;-0.003;0.078;0.0;9.4;23.4;39.1;18.3;-9.4;-179.1;0.0;35.36;39.46901;-0.34092;4.9;NaN;0.0;11.9;0.0;3 / 28;13108;2021-10-27 16:53:32:011
-1.594;0.198;-9.605;0.192;1.566;-9.677;-0.055;-0.026;-0.07;0.017;-0.002;0.094;0.0;9.2;23.4;39.4;17.9;-9.5;-179.0;0.0;35.36;39.46901;-0.34092;4.9;NaN;0.0;11.9;0.0;3 / 28;13159;2021-10-27 16:53:32:062
-1.644;0.191;-9.603;0.206;1.633;-9.668;0.0;-0.013;-0.07;0.013;-0.001;0.074;0.0;9.1;23.6;39.2;18.6;-9.4;-178.9;0.0;35.36;39.46901;-0.34092;4.9;NaN;0.0;11.9;0.0;3 / 28;13209;2021-10-27 16:53:32:112
-1.61;0.155;-9.612;0.163;1.618;-9.673;-0.041;-0.014;-0.043;0.009;0.001;0.053;0.0;9.3;23.2;39.1;18.4;-9.5;-179.0;0.0;31.88;39.46901;-0.34093;3.9;NaN;0.0;12.0;0.0;3 / 28;13258;2021-10-27 16:53:32:161
-1.582;0.193;-9.648;0.192;1.604;-9.673;0.016;-0.014;-0.07;0.006;0.002;0.037;0.0;9.5;23.2;38.9;18.7;-9.5;-178.8;0.0;31.88;39.46901;-0.34093;3.9;NaN;0.0;12.0;0.0;3 / 28;13308;2021-10-27 16:53:32:211
-1.663;0.191;-9.593;0.192;1.657;-9.663;-0.011;0.0;-0.098;0.005;0.001;0.033;0.0;9.5;23.0;39.1;20.4;-9.4;-178.8;0.0;31.88;39.46901;-0.34093;3.9;NaN;0.0;12.0;0.0;3 / 28;13359;2021-10-27 16:53:32:262
-1.598;0.191;-9.596;0.192;1.609;-9.673;0.029;-0.027;-0.07;0.003;-0.006;0.023;0.0;9.4;23.4;38.8;18.5;-9.4;-179.0;0.0;31.88;39.46901;-0.34093;3.9;NaN;0.0;12.0;0.0;3 / 28;13409;2021-10-27 16:53:32:312
-1.575;0.208;-9.608;0.177;1.585;-9.677;-0.001;-0.026;-0.097;0.002;-0.007;0.03;0.0;9.7;23.4;38.8;20.3;-9.3;-179.0;0.0;31.88;39.46901;-0.34093;3.9;NaN;0.0;12.0;0.0;3 / 28;13459;2021-10-27 16:53:32:362
-1.594;0.213;-9.591;0.192;1.618;-9.673;0.022;-0.038;-0.028;0.002;-0.007;0.036;0.0;9.5;23.4;38.9;18.6;-9.5;-178.9;0.0;31.88;39.46901;-0.34093;3.9;NaN;0.0;12.0;0.0;3 / 28;13508;2021-10-27 16:53:32:411
-1.625;0.184;-9.61;0.206;1.604;-9.673;0.007;-0.009;-0.082;0.0;-0.006;0.032;0.0;9.1;23.0;39.1;18.6;-9.5;-178.9;0.0;31.88;39.46901;-0.34093;3.9;NaN;0.0;12.0;0.0;3 / 28;13558;2021-10-27 16:53:32:461
-1.663;0.22;-9.658;0.206;1.647;-9.663;0.004;0.008;-0.096;-0.002;-0.004;0.016;0.0;9.1;23.1;39.2;18.5;-9.6;-178.9;0.0;32.1;39.46901;-0.34093;3.9;NaN;0.0;12.0;0.0;3 / 28;13608;2021-10-27 16:53:32:511
-1.603;0.191;-9.576;0.206;1.618;-9.668;0.002;0.037;-0.068;-0.004;-0.003;0.0;0.0;9.0;23.0;39.7;18.5;-9.6;-178.9;0.0;32.1;39.46901;-0.34093;3.9;NaN;0.0;12.0;0.0;3 / 28;13658;2021-10-27 16:53:32:561
-1.62;0.205;-9.586;0.163;1.652;-9.663;-0.013;0.011;-0.081;-0.007;-0.003;-0.021;0.0;9.2;23.1;39.8;18.2;-9.7;-179.0;0.0;32.1;39.46901;-0.34093;3.9;NaN;0.0;12.0;0.0;3 / 28;13709;2021-10-27 16:53:32:612
-1.594;0.174;-9.62;0.206;1.638;-9.668;-0.028;-0.002;-0.081;-0.007;-0.003;-0.021;0.0;9.1;23.1;39.8;18.5;-9.6;-178.9;0.0;32.1;39.46901;-0.34093;3.9;NaN;0.0;12.0;0.0;3 / 28;13759;2021-10-27 16:53:32:662
-1.577;0.193;-9.588;0.206;1.623;-9.668;-0.029;0.025;-0.094;-0.009;-0.002;-0.06;0.0;8.8;23.2;39.5;18.6;-9.6;-178.8;0.0;32.1;39.46901;-0.34093;3.9;NaN;0.0;12.0;0.0;3 / 28;13809;2021-10-27 16:53:32:712
-1.606;0.191;-9.632;0.192;1.618;-9.673;-0.029;0.011;-0.04;-0.004;0.005;-0.033;0.0;9.0;23.3;39.2;18.6;-9.3;-178.9;0.0;32.1;39.46901;-0.34093;3.9;NaN;0.0;12.0;0.0;3 / 28;13859;2021-10-27 16:53:32:762
-1.51;0.21;-9.615;0.235;1.484;-9.692;0.109;0.078;-0.054;-0.003;0.004;-0.037;0.0;8.6;23.5;39.1;17.9;-9.3;-179.0;0.0;33.19;39.46901;-0.34093;3.9;NaN;0.0;12.0;0.0;3 / 28;13908;2021-10-27 16:53:32:811
-1.575;0.217;-9.665;0.177;1.575;-9.677;-0.04;-0.007;-0.013;0.004;0.002;-0.028;0.0;9.1;23.8;38.6;17.9;-9.2;-179.0;0.0;33.19;39.46901;-0.34093;3.9;NaN;0.0;12.0;0.0;3 / 28;13959;2021-10-27 16:53:32:862
-1.625;0.146;-9.605;0.139;1.633;-9.668;-0.053;0.016;-0.041;0.007;0.003;-0.015;0.0;9.1;23.9;38.6;18.2;-9.2;-178.8;0.0;33.19;39.46901;-0.34093;3.9;NaN;0.0;12.0;0.0;3 / 28;14009;2021-10-27 16:53:32:912
-1.579;0.205;-9.581;0.206;1.566;-9.677;-0.065;-0.016;-0.096;0.006;0.003;0.0;0.0;9.7;23.7;38.3;19.8;-9.3;-178.9;0.0;33.19;39.46901;-0.34093;3.9;NaN;0.0;12.0;0.0;3 / 28;14059;2021-10-27 16:53:32:962
-1.56;0.179;-9.658;0.163;1.551;-9.682;-0.062;-0.031;-0.042;0.01;0.01;0.039;0.0;9.4;23.7;38.8;18.2;-9.2;-178.8;0.0;33.19;39.46901;-0.34093;3.9;NaN;0.0;12.0;0.0;3 / 28;14109;2021-10-27 16:53:33:012
-1.555;0.157;-9.605;0.153;1.566;-9.682;-0.025;0.022;-0.071;0.015;0.017;0.08;0.0;9.2;23.6;39.1;17.9;-9.1;-179.0;0.0;33.19;39.46901;-0.34093;3.9;NaN;0.0;12.0;0.0;3 / 28;14159;2021-10-27 16:53:33:062
-1.586;0.167;-9.615;0.163;1.575;-9.677;-0.032;0.021;-0.058;0.013;0.014;0.066;0.0;9.0;23.9;39.2;17.8;-9.2;-179.1;0.0;33.19;39.46902;-0.34093;2.9;NaN;0.0;12.0;0.0;3 / 28;14209;2021-10-27 16:53:33:112
-1.613;0.174;-9.603;0.163;1.59;-9.677;0.002;-0.007;-0.086;0.007;0.01;0.02;0.0;9.2;23.7;39.2;17.8;-9.5;-179.0;0.0;32.5;39.46902;-0.34093;2.9;NaN;0.0;12.0;0.0;3 / 28;14258;2021-10-27 16:53:33:161
-1.584;0.155;-9.596;0.148;1.561;-9.682;0.005;0.005;-0.073;0.004;0.006;0.001;0.0;8.8;23.3;39.1;18.4;-9.4;-179.0;0.0;32.5;39.46902;-0.34093;2.9;NaN;0.0;12.0;0.0;3 / 28;14308;2021-10-27 16:53:33:211
-1.551;0.15;-9.612;0.192;1.561;-9.677;-0.008;0.03;-0.046;0.004;0.006;0.001;0.0;8.9;23.6;38.9;17.7;-9.2;-179.2;0.0;32.5;39.46902;-0.34093;2.9;NaN;0.0;12.0;0.0;3 / 28;14358;2021-10-27 16:53:33:261
-1.598;0.167;-9.622;0.139;1.58;-9.677;-0.035;0.028;-0.06;-0.004;0.001;-0.047;0.0;9.0;23.6;38.6;18.1;-9.3;-178.9;0.0;32.5;39.46902;-0.34093;2.9;NaN;0.0;12.0;0.0;3 / 28;14409;2021-10-27 16:53:33:312
-1.579;0.155;-9.615;0.163;1.604;-9.673;-0.02;-0.001;-0.074;-0.003;0.003;-0.038;0.0;9.3;23.9;38.8;17.8;-9.4;-179.0;0.0;32.5;39.46902;-0.34093;2.9;NaN;0.0;12.0;0.0;3 / 28;14459;2021-10-27 16:53:33:362
-1.529;0.165;-9.61;0.177;1.566;-9.677;-0.031;-0.029;-0.033;-0.001;0.007;-0.006;0.0;9.3;24.0;38.8;17.9;-9.1;-179.0;0.0;32.5;39.46902;-0.34093;2.9;NaN;0.0;12.0;0.0;3 / 28;14509;2021-10-27 16:53:33:412
-1.594;0.179;-9.648;0.177;1.575;-9.677;0.001;-0.014;0.034;-0.001;0.009;0.007;0.0;9.2;23.7;39.1;17.7;-9.2;-179.2;0.0;31.84;39.46902;-0.34093;2.9;NaN;0.0;12.0;0.0;3 / 28;14559;2021-10-27 16:53:33:462
-1.618;0.16;-9.55;0.153;1.595;-9.677;-0.011;0.028;-0.157;0.005;0.004;0.045;0.0;9.3;23.5;38.9;18.0;-9.3;-179.0;0.0;31.84;39.46902;-0.34093;2.9;NaN;0.0;12.0;0.0;3 / 28;14608;2021-10-27 16:53:33:511
-1.565;0.165;-9.62;0.148;1.585;-9.677;0.005;0.028;-0.076;0.004;0.003;0.033;0.0;8.8;23.4;39.1;18.3;-9.3;-179.1;0.0;31.84;39.46902;-0.34093;2.9;NaN;0.0;12.0;0.0;3 / 28;14659;2021-10-27 16:53:33:562
-1.563;0.186;-9.629;0.163;1.58;-9.677;-0.022;-0.026;-0.089;0.001;-0.001;0.007;0.0;8.8;23.3;39.1;18.6;-9.1;-179.0;0.0;31.84;39.46902;-0.34093;2.9;NaN;0.0;12.0;0.0;3 / 28;14709;2021-10-27 16:53:33:612
-1.586;0.167;-9.615;0.153;1.58;-9.677;-0.023;0.001;-0.089;-0.003;0.0;-0.022;0.0;8.6;23.3;39.4;18.3;-9.2;-179.1;0.0;31.84;39.46902;-0.34093;2.9;NaN;0.0;12.0;0.0;3 / 28;14759;2021-10-27 16:53:33:662
-1.594;0.167;-9.636;0.11;1.59;-9.677;-0.009;0.028;-0.076;-0.008;0.001;-0.052;0.0;8.8;23.3;39.1;18.4;-9.4;-179.0;0.0;31.84;39.46902;-0.34093;2.9;NaN;0.0;12.0;0.0;3 / 28;14809;2021-10-27 16:53:33:712
-1.603;0.181;-9.612;0.177;1.59;-9.677;0.005;0.001;-0.076;-0.007;0.001;-0.045;0.0;9.0;23.0;38.8;18.5;-9.3;-179.0;0.0;31.84;39.46902;-0.34093;2.9;NaN;0.0;12.0;0.0;3 / 28;14858;2021-10-27 16:53:33:761
-1.575;0.169;-9.624;0.153;1.537;-9.682;-0.01;0.0;-0.089;-0.004;-0.002;-0.029;0.0;8.9;23.0;38.9;18.3;-9.5;-179.1;0.0;31.89;39.46902;-0.34093;2.9;NaN;0.0;12.0;0.0;3 / 28;14909;2021-10-27 16:53:33:812
-1.577;0.167;-9.627;0.177;1.58;-9.677;-0.025;0.0;-0.062;-0.002;-0.002;-0.021;0.0;8.7;23.2;39.2;18.4;-9.2;-179.1;0.0;31.89;39.46902;-0.34093;2.9;NaN;0.0;12.0;0.0;3 / 28;14959;2021-10-27 16:53:33:862
-1.567;0.141;-9.639;0.177;1.599;-9.673;0.002;-0.027;-0.048;-0.001;-0.002;-0.013;0.0;8.8;23.4;39.4;17.9;-9.1;-179.0;0.0;31.89;39.46902;-0.34093;2.9;NaN;0.0;12.0;0.0;3 / 28;15009;2021-10-27 16:53:33:912
-1.567;0.162;-9.593;0.163;1.609;-9.673;-0.011;0.0;-0.048;-0.001;0.001;-0.005;0.0;8.9;23.6;39.2;17.8;-9.4;-179.0;0.0;31.89;39.46902;-0.34093;2.9;NaN;0.0;12.0;0.0;3 / 28;15059;2021-10-27 16:53:33:962
-1.565;0.165;-9.596;0.163;1.566;-9.677;-0.025;0.0;-0.075;-0.002;0.0;-0.01;0.0;8.9;23.6;39.1;17.5;-9.2;-179.3;0.0;31.89;39.46902;-0.34093;2.9;NaN;0.0;12.0;0.0;3 / 28;15108;2021-10-27 16:53:34:011
-1.577;0.179;-9.675;0.163;1.604;-9.673;-0.052;0.0;-0.062;-0.002;0.0;-0.011;0.0;8.9;23.5;39.2;17.9;-9.2;-179.0;0.0;31.89;39.46902;-0.34093;2.9;NaN;0.0;12.0;0.0;3 / 28;15158;2021-10-27 16:53:34:061
-1.555;0.181;-9.62;0.148;1.561;-9.682;-0.025;0.013;-0.062;0.003;0.0;0.0;0.0;8.9;23.3;39.4;18.5;-9.2;-179.0;0.0;31.76;39.46902;-0.34093;2.9;NaN;0.0;12.0;0.0;3 / 28;15209;2021-10-27 16:53:34:112
-1.555;0.162;-9.62;0.153;1.551;-9.682;-0.038;-0.015;-0.075;0.002;0.001;0.005;0.0;9.0;23.6;39.5;17.8;-9.1;-179.1;0.0;31.76;39.46902;-0.34093;2.7;NaN;0.0;12.0;0.0;3 / 28;15258;2021-10-27 16:53:34:161
-1.575;0.191;-9.687;0.177;1.59;-9.677;0.031;-0.016;-0.021;0.0;0.002;0.002;0.0;8.9;23.6;39.4;17.9;-9.4;-179.0;0.0;31.76;39.46902;-0.34093;2.7;NaN;0.0;12.0;0.0;3 / 28;15309;2021-10-27 16:53:34:212
-1.546;0.148;-9.584;0.153;1.585;-9.677;0.059;0.066;-0.144;0.0;0.0;0.0;0.0;9.0;23.9;39.4;17.3;-9.7;-179.4;0.0;31.76;39.46902;-0.34093;2.7;NaN;0.0;12.0;0.0;3 / 28;15359;2021-10-27 16:53:34:262
-1.577;0.208;-9.596;0.192;1.609;-9.673;0.004;0.066;-0.116;0.002;-0.002;0.0;0.0;9.0;23.4;39.4;17.7;-9.3;-179.2;0.0;31.76;39.46902;-0.34093;2.7;NaN;0.0;12.0;0.0;3 / 28;15408;2021-10-27 16:53:34:311
-1.591;0.179;-9.658;0.163;1.599;-9.673;0.002;0.009;-0.062;0.005;-0.007;-0.003;0.0;9.0;23.1;38.9;18.4;-9.4;-179.0;0.0;31.76;39.46902;-0.34093;2.7;NaN;0.0;12.0;0.0;3 / 28;15459;2021-10-27 16:53:34:362
-1.584;0.177;-9.612;0.163;1.551;-9.682;-0.029;-0.008;-0.047;0.006;-0.005;0.004;0.0;8.5;23.2;38.9;18.5;-9.2;-179.0;0.0;31.76;39.46902;-0.34093;2.7;NaN;0.0;12.0;0.0;3 / 28;15509;2021-10-27 16:53:34:412
-1.567;0.15;-9.596;0.139;1.604;-9.673;-0.031;-0.01;-0.033;0.002;-0.003;0.003;0.0;8.5;23.6;38.8;16.7;-9.3;-179.0;0.0;34.41;39.46902;-0.34093;2.7;NaN;0.0;12.0;0.0;3 / 28;15559;2021-10-27 16:53:34:462
-1.563;0.122;-9.617;0.139;1.542;-9.682;-0.046;0.004;-0.033;-0.004;-0.002;-0.018;0.0;8.4;23.6;38.9;17.7;-9.4;-179.2;0.0;34.41;39.46902;-0.34093;2.7;NaN;0.0;12.0;0.0;3 / 28;15609;2021-10-27 16:53:34:512
-1.579;0.184;-9.591;0.192;1.575;-9.677;-0.032;-0.009;-0.101;-0.004;-0.002;-0.018;0.0;8.8;23.7;38.9;18.1;-9.2;-178.9;0.0;34.41;39.46902;-0.34093;2.7;NaN;0.0;12.0;0.0;3 / 28;15659;2021-10-27 16:53:34:562
-1.572;0.169;-9.612;0.163;1.58;-9.677;-0.017;-0.035;-0.047;-0.004;-0.002;-0.018;0.0;9.1;23.6;38.9;18.0;-9.1;-179.0;0.0;34.41;39.46902;-0.34093;2.7;NaN;0.0;12.0;0.0;3 / 28;15709;2021-10-27 16:53:34:612
-1.589;0.167;-9.627;0.139;1.59;-9.677;-0.029;0.006;-0.061;-0.004;-0.002;-0.018;0.0;9.2;23.3;38.6;18.5;-9.3;-179.0;0.0;34.41;39.46902;-0.34093;2.7;NaN;0.0;12.0;0.0;3 / 28;15759;2021-10-27 16:53:34:662
-1.579;0.172;-9.634;0.148;1.614;-9.673;-0.028;-0.035;-0.075;0.004;0.0;0.032;0.0;9.2;23.6;38.9;17.6;-9.5;-179.2;0.0;34.41;39.46902;-0.34093;2.7;NaN;0.0;12.0;0.0;3 / 28;15809;2021-10-27 16:53:34:712
-1.577;0.177;-9.586;0.177;1.585;-9.677;-0.001;-0.02;-0.075;0.007;-0.002;0.058;0.0;9.0;23.5;38.8;17.9;-9.3;-179.0;0.0;38.17;39.46902;-0.34093;2.7;NaN;0.0;12.0;0.0;3 / 28;15858;2021-10-27 16:53:34:761
-1.596;0.16;-9.648;0.192;1.614;-9.673;-0.003;-0.019;-0.061;0.004;-0.006;0.045;0.0;8.9;23.2;38.9;18.5;-9.4;-179.0;0.0;38.17;39.46902;-0.34093;2.7;NaN;0.0;12.0;0.0;3 / 28;15909;2021-10-27 16:53:34:812
-1.589;0.148;-9.617;0.153;1.604;-9.673;-0.004;-0.004;-0.047;0.001;-0.005;0.026;0.0;8.7;23.0;38.9;18.3;-9.4;-179.1;0.0;38.17;39.46902;-0.34093;2.7;NaN;0.0;12.0;0.0;3 / 28;15958;2021-10-27 16:53:34:861
-1.608;0.167;-9.586;0.177;1.59;-9.677;0.021;-0.002;-0.074;-0.002;-0.004;0.006;0.0;8.7;23.0;39.1;18.5;-9.6;-178.9;0.0;38.17;39.46902;-0.34093;2.7;NaN;0.0;12.0;0.0;3 / 28;16008;2021-10-27 16:53:34:911
-1.589;0.179;-9.622;0.163;1.59;-9.677;0.004;-0.042;-0.046;-0.008;-0.004;-0.035;0.0;8.7;23.0;38.9;18.5;-9.4;-179.0;0.0;38.17;39.46902;-0.34093;2.7;NaN;0.0;12.0;0.0;3 / 28;16059;2021-10-27 16:53:34:962
-1.632;0.184;-9.62;0.177;1.618;-9.673;-0.011;0.0;-0.073;-0.01;-0.004;-0.048;0.0;8.3;22.7;39.1;16.5;-9.4;-179.1;0.0;38.17;39.46902;-0.34093;2.7;NaN;0.0;12.0;0.0;3 / 28;16109;2021-10-27 16:53:35:012
-1.62;0.201;-9.586;0.163;1.623;-9.668;-0.027;0.043;-0.086;-0.012;-0.003;-0.056;0.0;8.5;22.9;38.8;16.9;-9.3;-178.9;0.0;31.35;39.46902;-0.34093;2.7;NaN;0.0;12.0;0.0;3 / 28;16158;2021-10-27 16:53:35:061
-1.572;0.201;-9.646;0.192;1.575;-9.677;0.04;-0.037;-0.018;-0.013;-0.002;-0.052;0.0;8.6;22.8;38.5;16.7;-9.4;-179.0;0.0;31.35;39.46902;-0.34093;2.7;NaN;0.0;12.0;0.0;3 / 28;16209;2021-10-27 16:53:35:112
-1.634;0.153;-9.598;0.139;1.623;-9.673;-0.029;-0.022;-0.154;-0.007;-0.002;-0.023;0.0;9.0;23.0;38.6;18.2;-9.5;-179.2;0.0;31.35;39.46901;-0.34093;2.3;NaN;0.5;12.0;37.4;3 / 29;16259;2021-10-27 16:53:35:162
-1.625;0.205;-9.584;0.192;1.618;-9.673;0.024;-0.02;-0.072;-0.004;-0.003;-0.011;0.0;9.0;23.0;38.8;18.5;-9.5;-179.0;0.0;31.35;39.46901;-0.34093;2.3;NaN;0.5;12.0;37.4;3 / 29;16309;2021-10-27 16:53:35:212
-1.62;0.184;-9.605;0.192;1.618;-9.673;-0.006;-0.019;-0.112;-0.004;-0.003;-0.011;0.0;8.7;23.1;38.9;18.6;-9.4;-178.9;0.0;31.35;39.46901;-0.34093;2.3;NaN;0.5;12.0;37.4;3 / 29;16359;2021-10-27 16:53:35:262
-1.622;0.179;-9.62;0.177;1.628;-9.668;0.017;-0.004;-0.084;-0.001;-0.01;0.014;0.0;8.5;23.2;38.9;18.7;-9.4;-178.8;0.0;31.35;39.46901;-0.34093;2.3;NaN;0.5;12.0;37.4;3 / 29;16409;2021-10-27 16:53:35:312
-1.634;0.179;-9.622;0.163;1.604;-9.673;0.0;0.038;-0.07;-0.004;-0.007;-0.006;0.0;8.5;23.4;38.8;18.4;-9.4;-179.0;0.0;31.35;39.46901;-0.34093;2.3;NaN;0.5;12.0;37.4;3 / 29;16459;2021-10-27 16:53:35:362
-1.615;0.198;-9.634;0.192;1.609;-9.673;-0.018;-0.001;-0.069;-0.005;-0.005;-0.019;0.0;8.8;23.5;38.6;17.9;-9.4;-179.0;0.0;31.67;39.46901;-0.34093;2.3;NaN;0.5;12.0;37.4;3 / 29;16508;2021-10-27 16:53:35:411
-1.608;0.172;-9.66;0.148;1.647;-9.668;0.021;0.013;-0.055;-0.005;-0.003;-0.029;0.0;8.7;23.4;38.6;18.5;-9.6;-178.9;0.0;31.67;39.46901;-0.34093;2.3;NaN;0.5;12.0;37.4;3 / 29;16559;2021-10-27 16:53:35:462
-1.601;0.186;-9.612;0.192;1.595;-9.673;0.006;-0.015;-0.096;-0.003;-0.003;-0.021;0.0;8.8;23.6;38.6;17.9;-9.6;-179.0;0.0;31.67;39.46901;-0.34093;2.3;NaN;0.5;12.0;37.4;3 / 29;16609;2021-10-27 16:53:35:512
-1.601;0.189;-9.6;0.177;1.633;-9.668;-0.023;-0.014;-0.055;-0.003;-0.003;-0.011;0.0;9.1;23.6;38.8;18.0;-9.6;-178.9;0.0;31.67;39.46901;-0.34093;2.3;NaN;0.5;12.0;37.4;3 / 29;16658;2021-10-27 16:53:35:561
-1.634;0.193;-9.584;0.177;1.638;-9.668;0.003;0.0;-0.082;0.0;-0.004;0.017;0.0;9.3;23.6;38.9;17.9;-9.4;-179.0;0.0;31.67;39.46901;-0.34093;2.3;NaN;0.5;12.0;37.4;3 / 29;16709;2021-10-27 16:53:35:612
-1.615;0.196;-9.608;0.163;1.604;-9.673;-0.013;0.003;-0.068;0.002;-0.004;0.046;0.0;9.1;23.2;39.2;18.6;-9.4;-178.9;0.0;31.67;39.46901;-0.34093;2.3;NaN;0.5;12.0;37.4;3 / 29;16759;2021-10-27 16:53:35:662
-1.594;0.184;-9.605;0.177;1.604;-9.673;0.027;0.005;-0.081;0.005;-0.003;0.05;0.0;8.9;22.8;39.4;18.4;-9.4;-179.0;0.0;45.19;39.46901;-0.34093;2.3;NaN;0.5;12.0;37.4;3 / 29;16809;2021-10-27 16:53:35:712
-1.63;0.186;-9.596;0.177;1.623;-9.668;-0.028;0.006;-0.054;0.001;-0.003;0.02;0.0;8.7;22.5;39.1;18.5;-9.5;-179.0;0.0;45.19;39.46901;-0.34093;2.3;NaN;0.5;12.0;37.4;3 / 29;16858;2021-10-27 16:53:35:761
-1.606;0.201;-9.6;0.192;1.633;-9.668;-0.002;-0.006;-0.067;0.001;-0.002;0.021;0.0;9.0;22.7;38.9;18.5;-9.6;-178.9;0.0;45.19;39.46901;-0.34093;2.3;NaN;0.5;12.0;37.4;3 / 29;16908;2021-10-27 16:53:35:811
-1.608;0.201;-9.615;0.192;1.599;-9.673;-0.03;-0.005;-0.04;0.002;-0.002;0.018;0.0;9.7;23.1;38.9;20.1;-9.4;-179.0;0.0;45.19;39.46901;-0.34093;2.3;NaN;0.5;12.0;37.4;3 / 29;16959;2021-10-27 16:53:35:862
-1.606;0.191;-9.605;0.177;1.618;-9.673;-0.029;0.008;-0.067;0.002;-0.002;0.018;0.0;9.7;23.4;38.9;20.8;-8.7;-178.7;0.0;45.19;39.46901;-0.34093;2.3;NaN;0.5;12.0;37.4;3 / 29;17009;2021-10-27 16:53:35:912
-1.601;0.198;-9.593;0.192;1.618;-9.673;-0.013;-0.006;-0.068;0.002;-0.002;0.018;0.0;9.4;23.3;39.2;18.5;-9.4;-179.0;0.0;45.19;39.46901;-0.34093;2.3;NaN;0.5;12.0;37.4;3 / 29;17058;2021-10-27 16:53:35:961
-1.598;0.16;-9.624;0.192;1.618;-9.673;-0.012;-0.006;-0.054;0.015;0.002;0.083;0.0;9.2;23.3;39.4;18.4;-9.3;-179.0;0.0;45.19;39.46901;-0.34093;2.3;NaN;0.5;12.0;37.4;3 / 29;17109;2021-10-27 16:53:36:012
-1.565;0.179;-9.596;0.177;1.571;-9.677;-0.011;0.006;-0.055;0.013;0.002;0.053;0.0;9.0;23.5;39.4;18.0;-9.2;-179.0;0.0;31.66;39.46901;-0.34093;2.3;NaN;0.5;12.0;37.4;3 / 29;17159;2021-10-27 16:53:36:062
-1.589;0.167;-9.67;0.163;1.595;-9.677;-0.064;0.058;-0.055;0.009;0.002;0.029;0.0;8.8;23.9;39.2;18.0;-9.2;-179.0;0.0;31.66;39.46901;-0.34093;2.3;NaN;0.5;12.0;37.4;3 / 29;17209;2021-10-27 16:53:36:112
-1.567;0.169;-9.574;0.177;1.599;-9.673;-0.034;0.015;-0.014;0.0;0.011;-0.032;0.0;8.6;23.8;38.9;18.1;-9.4;-178.8;0.0;31.66;39.46901;-0.34093;2.3;NaN;0.0;12.0;0.0;2 / 29;17259;2021-10-27 16:53:36:162
-1.598;0.148;-9.584;0.177;1.623;-9.668;-0.001;0.012;-0.07;-0.007;0.012;-0.068;0.0;8.4;23.6;38.9;16.0;-9.4;-179.1;0.0;31.66;39.46901;-0.34093;2.3;NaN;0.0;12.0;0.0;2 / 29;17308;2021-10-27 16:53:36:211
-1.555;0.189;-9.629;0.163;1.575;-9.677;-0.025;-0.003;-0.084;-0.009;0.008;-0.075;0.0;8.7;23.5;39.2;17.9;-9.2;-179.0;0.0;31.66;39.46901;-0.34093;2.3;NaN;0.0;12.0;0.0;2 / 29;17359;2021-10-27 16:53:36:262
-1.61;0.179;-9.632;0.192;1.609;-9.673;-0.036;0.023;-0.071;-0.008;0.005;-0.06;0.0;8.8;23.7;39.5;17.8;-9.3;-179.1;0.0;31.66;39.46901;-0.34093;2.3;NaN;0.0;12.0;0.0;2 / 29;17408;2021-10-27 16:53:36:311
-1.613;0.153;-9.624;0.177;1.604;-9.673;0.047;-0.005;-0.085;-0.007;0.002;-0.043;0.0;8.9;23.9;39.5;17.7;-9.5;-179.0;0.0;32.56;39.46901;-0.34093;2.3;NaN;0.0;12.0;0.0;2 / 29;17459;2021-10-27 16:53:36:362
-1.575;0.172;-9.632;0.177;1.532;-9.687;-0.007;0.008;-0.044;-0.005;0.002;-0.036;0.0;8.8;24.1;39.4;17.8;-9.2;-179.1;0.0;32.56;39.46901;-0.34093;2.3;NaN;0.0;12.0;0.0;2 / 29;17509;2021-10-27 16:53:36:412
-1.582;0.15;-9.629;0.163;1.58;-9.677;0.021;0.022;-0.044;-0.004;-0.001;-0.029;0.0;8.5;23.5;38.9;18.2;-9.3;-178.8;0.0;32.56;39.46901;-0.34093;2.3;NaN;0.0;12.0;0.0;2 / 29;17559;2021-10-27 16:53:36:462
-1.622;0.172;-9.605;0.153;1.595;-9.673;-0.035;0.021;-0.098;-0.004;-0.001;-0.029;0.0;8.3;23.6;38.8;15.9;-9.3;-179.2;0.0;32.56;39.46901;-0.34093;2.3;NaN;0.0;12.0;0.0;2 / 29;17609;2021-10-27 16:53:36:512
-1.586;0.157;-9.622;0.163;1.575;-9.677;-0.035;0.007;-0.057;-0.004;-0.001;-0.029;0.0;8.4;23.8;38.6;17.8;-9.2;-179.1;0.0;32.56;39.46901;-0.34093;2.3;NaN;0.0;12.0;0.0;2 / 29;17659;2021-10-27 16:53:36:562
-1.608;0.172;-9.629;0.192;1.604;-9.673;-0.049;0.007;-0.044;-0.005;0.001;-0.033;0.0;8.7;23.9;38.9;17.9;-9.2;-179.0;0.0;32.56;39.46901;-0.34093;2.3;NaN;0.0;12.0;0.0;2 / 29;17708;2021-10-27 16:53:36:611
-1.575;0.148;-9.61;0.139;1.58;-9.677;-0.033;0.034;-0.085;-0.002;0.006;-0.018;0.0;8.9;23.8;38.9;17.7;-9.4;-179.1;0.0;32.56;39.46901;-0.34093;2.3;NaN;0.0;12.0;0.0;2 / 29;17759;2021-10-27 16:53:36:662
-1.584;0.148;-9.629;0.148;1.561;-9.682;-0.029;0.019;-0.072;0.002;0.009;0.001;0.0;8.5;23.3;38.8;18.5;-9.1;-179.0;0.0;30.62;39.46901;-0.34093;2.3;NaN;0.0;12.0;0.0;2 / 29;17809;2021-10-27 16:53:36:712
-1.539;0.165;-9.608;0.139;1.566;-9.682;-0.027;0.004;-0.073;0.007;0.006;0.019;0.0;8.6;23.1;38.6;18.3;-9.2;-179.1;0.0;30.62;39.46901;-0.34093;2.3;NaN;0.0;12.0;0.0;2 / 29;17858;2021-10-27 16:53:36:761
-1.594;0.165;-9.665;0.148;1.59;-9.677;-0.01;0.015;-0.046;0.008;0.005;0.024;0.0;8.5;23.1;38.6;16.7;-9.1;-179.1;0.0;30.62;39.46901;-0.34093;2.3;NaN;0.0;12.0;0.0;2 / 29;17909;2021-10-27 16:53:36:812
-1.603;0.165;-9.612;0.163;1.59;-9.677;0.019;-0.013;-0.073;0.006;0.004;0.016;0.0;8.8;23.5;38.6;17.9;-9.3;-179.0;0.0;30.62;39.46901;-0.34093;2.3;NaN;0.0;12.0;0.0;2 / 29;17959;2021-10-27 16:53:36:862
-1.56;0.174;-9.627;0.163;1.59;-9.677;0.007;-0.028;-0.047;0.004;0.002;0.009;0.0;8.5;23.6;38.3;17.7;-9.4;-179.2;0.0;30.62;39.46901;-0.34093;2.3;NaN;0.0;12.0;0.0;2 / 29;18009;2021-10-27 16:53:36:912
-1.548;0.167;-9.603;0.177;1.566;-9.677;-0.02;0.025;-0.087;0.002;-0.002;0.003;0.0;8.8;23.7;38.3;18.0;-9.1;-179.0;0.0;30.62;39.46901;-0.34093;2.3;NaN;0.0;12.0;0.0;2 / 29;18059;2021-10-27 16:53:36:962
-1.522;0.196;-9.629;0.206;1.528;-9.687;-0.061;-0.03;-0.06;0.002;0.001;0.007;0.0;8.9;23.6;38.6;18.1;-9.2;-178.9;0.0;30.62;39.46901;-0.34093;2.3;NaN;0.0;12.0;0.0;2 / 29;18108;2021-10-27 16:53:37:011
-1.625;0.146;-9.67;0.124;1.609;-9.673;-0.006;0.025;-0.06;0.003;0.002;0.024;0.0;8.8;23.4;38.8;18.1;-9.4;-179.3;0.0;30.7;39.46901;-0.34093;2.3;NaN;0.0;12.0;0.0;2 / 29;18158;2021-10-27 16:53:37:061
-1.572;0.162;-9.574;0.139;1.614;-9.673;0.023;0.012;-0.088;0.004;0.002;0.034;0.0;8.9;23.1;39.2;18.5;-9.3;-179.0;0.0;30.7;39.46901;-0.34093;2.3;NaN;0.0;12.0;0.0;2 / 29;18209;2021-10-27 16:53:37:112
-1.579;0.157;-9.591;0.163;1.609;-9.673;0.01;-0.002;-0.088;0.004;0.002;0.034;0.0;9.1;23.6;39.2;17.7;-9.4;-179.1;0.0;30.7;39.46914;-0.34095;1.8;NaN;0.6;12.0;37.4;2 / 29;18258;2021-10-27 16:53:37:161
-1.57;0.169;-9.636;0.192;1.547;-9.682;-0.018;-0.016;-0.033;0.004;0.002;0.034;0.0;9.2;23.9;39.5;18.0;-9.2;-179.0;0.0;30.7;39.46914;-0.34095;1.8;NaN;0.6;12.0;37.4;2 / 29;18309;2021-10-27 16:53:37:212
-1.57;0.15;-9.603;0.153;1.58;-9.677;-0.019;0.009;-0.074;0.004;0.002;0.034;0.0;9.2;23.5;38.9;17.7;-9.3;-179.2;0.0;30.7;39.46914;-0.34095;1.8;NaN;0.6;12.0;37.4;2 / 29;18359;2021-10-27 16:53:37:262
-1.598;0.165;-9.6;0.153;1.595;-9.673;-0.006;-0.005;-0.074;0.008;-0.002;0.039;0.0;9.1;23.3;39.1;18.4;-9.4;-179.0;0.0;30.7;39.46914;-0.34095;1.8;NaN;0.6;12.0;37.4;2 / 29;18408;2021-10-27 16:53:37:311
-1.586;0.184;-9.627;0.206;1.575;-9.677;-0.021;-0.005;-0.033;0.006;-0.002;0.045;0.0;9.2;23.0;38.8;18.6;-9.2;-179.0;0.0;31.5;39.46914;-0.34095;1.8;NaN;0.6;12.0;37.4;2 / 29;18459;2021-10-27 16:53:37:362
-1.589;0.162;-9.596;0.153;1.59;-9.677;-0.021;-0.004;-0.087;0.003;-0.002;0.042;0.0;9.1;23.1;38.8;18.7;-9.2;-178.9;0.0;31.5;39.46914;-0.34095;1.8;NaN;0.6;12.0;37.4;2 / 29;18509;2021-10-27 16:53:37:412
-1.598;0.165;-9.608;0.139;1.59;-9.677;-0.021;0.0;-0.087;-0.002;-0.001;0.033;0.0;8.8;23.0;38.9;18.2;-9.3;-179.2;0.0;31.5;39.46914;-0.34095;1.8;NaN;0.6;12.0;37.4;2 / 29;18559;2021-10-27 16:53:37:462
-1.575;0.143;-9.61;0.139;1.575;-9.677;-0.035;0.002;-0.087;-0.003;0.0;0.018;0.0;8.6;22.9;38.9;18.3;-9.2;-179.2;0.0;31.5;39.46914;-0.34095;1.8;NaN;0.6;12.0;37.4;2 / 29;18609;2021-10-27 16:53:37:512
-1.531;0.193;-9.612;0.153;1.59;-9.677;-0.076;-0.022;-0.033;-0.008;0.001;-0.021;0.0;8.9;23.1;38.9;18.5;-9.5;-179.0;0.0;31.5;39.46914;-0.34095;1.8;NaN;0.6;12.0;37.4;2 / 29;18659;2021-10-27 16:53:37:562
-1.567;0.157;-9.603;0.163;1.575;-9.677;-0.02;0.02;-0.06;-0.007;0.004;-0.024;0.0;9.1;23.0;38.9;18.3;-9.3;-179.1;0.0;31.5;39.46914;-0.34095;1.8;NaN;0.6;12.0;37.4;2 / 29;18709;2021-10-27 16:53:37:612
-1.56;0.203;-9.648;0.177;1.566;-9.677;-0.045;-0.02;-0.074;-0.002;0.004;-0.008;0.0;9.1;22.9;38.3;17.4;-10.3;-179.7;0.0;31.5;39.46914;-0.34095;1.8;NaN;0.6;12.0;37.4;2 / 29;18759;2021-10-27 16:53:37:662
-1.591;0.141;-9.634;0.177;1.585;-9.677;-0.002;0.021;-0.074;0.002;0.004;0.013;0.0;9.1;22.8;38.3;18.5;-9.2;-179.0;0.0;34.67;39.46914;-0.34095;1.8;NaN;0.6;12.0;37.4;2 / 29;18808;2021-10-27 16:53:37:711
-1.589;0.165;-9.591;0.163;1.609;-9.673;-0.014;0.006;-0.102;0.009;0.002;0.039;0.0;9.2;23.1;38.5;18.6;-9.2;-179.0;0.0;34.67;39.46914;-0.34095;1.8;NaN;0.6;12.0;37.4;2 / 29;18859;2021-10-27 16:53:37:762
-1.579;0.198;-9.605;0.192;1.604;-9.673;0.014;-0.008;-0.047;0.009;0.002;0.044;0.0;9.0;23.3;38.6;18.4;-9.4;-179.0;0.0;34.67;39.46914;-0.34095;1.8;NaN;0.6;12.0;37.4;2 / 29;18909;2021-10-27 16:53:37:812
-1.572;0.177;-9.615;0.163;1.604;-9.673;0.013;0.005;-0.075;0.009;0.002;0.044;0.0;8.9;23.9;38.8;17.8;-9.5;-179.0;0.0;34.67;39.46914;-0.34095;1.8;NaN;0.6;12.0;37.4;2 / 29;18959;2021-10-27 16:53:37:862
-1.579;0.191;-9.598;0.163;1.59;-9.677;0.012;0.005;-0.047;0.009;0.002;0.044;0.0;8.8;23.8;38.6;17.7;-9.5;-179.1;0.0;34.67;39.46914;-0.34095;1.8;NaN;0.6;12.0;37.4;2 / 29;19009;2021-10-27 16:53:37:912
-1.582;0.177;-9.629;0.163;1.585;-9.677;-0.03;0.006;-0.088;-0.002;-0.003;-0.01;0.0;8.8;23.7;39.1;17.9;-9.4;-179.0;0.0;34.67;39.46914;-0.34095;1.8;NaN;0.6;12.0;37.4;2 / 29;19059;2021-10-27 16:53:37:962
-1.577;0.184;-9.615;0.206;1.59;-9.673;-0.003;-0.034;-0.061;-0.009;0.0;-0.04;0.0;8.8;23.4;39.1;18.0;-9.2;-179.0;0.0;34.48;39.46914;-0.34095;1.8;NaN;0.6;12.0;37.4;2 / 29;19109;2021-10-27 16:53:38:012
-1.596;0.129;-9.576;0.148;1.618;-9.673;0.023;0.021;-0.101;-0.01;0.0;-0.051;0.0;8.9;22.8;39.1;18.2;-9.6;-179.1;0.0;34.48;39.46914;-0.34095;1.8;NaN;0.6;12.0;37.4;2 / 29;19159;2021-10-27 16:53:38:062
-1.606;0.196;-9.615;0.192;1.604;-9.673;-0.005;-0.033;-0.074;-0.008;-0.003;-0.045;0.0;8.8;22.7;39.1;18.8;-9.3;-178.7;0.0;34.48;39.46914;-0.34095;1.8;NaN;0.6;12.0;37.4;2 / 29;19209;2021-10-27 16:53:38:112
-1.596;0.181;-9.615;0.163;1.618;-9.673;-0.036;-0.02;-0.046;-0.004;-0.014;-0.04;0.0;8.9;22.7;39.2;18.6;-9.3;-178.9;0.0;34.48;39.46914;-0.34095;1.6;NaN;0.0;12.1;37.4;2 / 29;19259;2021-10-27 16:53:38:162
-1.61;0.189;-9.596;0.177;1.623;-9.673;0.009;-0.008;-0.058;-0.002;-0.016;-0.036;0.0;9.3;23.0;39.4;18.6;-9.5;-178.9;0.0;34.48;39.46914;-0.34095;1.6;NaN;0.0;12.1;37.4;2 / 29;19308;2021-10-27 16:53:38:211
-1.598;0.169;-9.67;0.192;1.571;-9.677;0.002;-0.009;-0.057;0.001;-0.01;-0.003;0.0;9.2;23.4;39.1;18.5;-9.4;-179.0;0.0;34.48;39.46914;-0.34095;1.6;NaN;0.0;12.1;37.4;2 / 29;19358;2021-10-27 16:53:38:261
-1.618;0.179;-9.648;0.163;1.618;-9.673;-0.041;0.005;-0.097;0.003;-0.006;0.021;0.0;8.7;23.6;38.9;17.9;-9.6;-179.0;0.0;34.48;39.46914;-0.34095;1.6;NaN;0.0;12.1;37.4;2 / 29;19408;2021-10-27 16:53:38:311
-1.61;0.191;-9.591;0.177;1.638;-9.668;-0.017;0.005;-0.083;-0.002;-0.004;-0.005;0.0;8.5;23.9;38.9;17.8;-9.5;-179.0;0.0;41.01;39.46914;-0.34095;1.6;NaN;0.0;12.1;37.4;2 / 29;19458;2021-10-27 16:53:38:361
-1.62;0.193;-9.596;0.177;1.633;-9.668;0.01;-0.021;-0.07;-0.003;-0.002;-0.014;0.0;8.4;23.4;39.1;16.1;-9.6;-179.0;0.0;41.01;39.46914;-0.34095;1.6;NaN;0.0;12.1;37.4;2 / 29;19508;2021-10-27 16:53:38:411
-1.575;0.193;-9.622;0.177;1.609;-9.673;-0.045;0.006;-0.069;-0.006;-0.001;-0.033;0.0;8.8;23.3;39.4;18.5;-9.4;-179.0;0.0;41.01;39.46914;-0.34095;1.6;NaN;0.0;12.1;37.4;2 / 29;19558;2021-10-27 16:53:38:461
-1.654;0.198;-9.596;0.192;1.638;-9.668;0.009;-0.035;-0.083;-0.006;-0.001;-0.033;0.0;8.5;23.2;39.1;18.5;-9.4;-179.0;0.0;41.01;39.46914;-0.34095;1.6;NaN;0.0;12.1;37.4;2 / 29;19608;2021-10-27 16:53:38:511
-1.627;0.181;-9.596;0.192;1.638;-9.668;0.008;-0.02;-0.096;-0.006;-0.001;-0.033;0.0;8.2;23.5;38.8;16.3;-9.5;-178.9;0.0;41.01;39.46914;-0.34095;1.6;NaN;0.0;12.1;37.4;2 / 29;19658;2021-10-27 16:53:38:561
-1.603;0.208;-9.622;0.192;1.614;-9.673;0.006;-0.004;-0.083;-0.006;-0.001;-0.033;0.0;8.0;23.6;38.6;15.9;-9.3;-179.2;0.0;41.01;39.46914;-0.34095;1.6;NaN;0.0;12.1;37.4;2 / 29;19708;2021-10-27 16:53:38:611
-1.589;0.196;-9.596;0.206;1.633;-9.668;0.004;-0.028;-0.055;-0.006;-0.001;-0.033;0.0;8.5;23.2;38.9;16.9;-9.6;-178.8;0.0;32.17;39.46914;-0.34095;1.6;NaN;0.0;12.1;37.4;2 / 29;19758;2021-10-27 16:53:38:661
-1.634;0.198;-9.584;0.192;1.633;-9.668;0.015;-0.01;-0.082;-0.019;-0.003;-0.072;0.0;8.6;22.8;39.1;18.7;-9.4;-178.8;0.0;32.17;39.46914;-0.34095;1.6;NaN;0.0;12.1;37.4;2 / 29;19809;2021-10-27 16:53:38:712
-1.61;0.191;-9.591;0.192;1.618;-9.673;-0.014;0.005;-0.054;-0.013;-0.003;-0.045;0.0;8.5;22.7;39.4;18.5;-9.5;-179.0;0.0;32.17;39.46914;-0.34095;1.6;NaN;0.0;12.1;37.4;2 / 29;19859;2021-10-27 16:53:38:762
-1.622;0.191;-9.61;0.148;1.642;-9.668;-0.001;0.008;-0.04;-0.005;-0.001;-0.013;0.0;8.5;22.7;39.2;18.5;-9.7;-178.9;0.0;32.17;39.46914;-0.34095;1.6;NaN;0.0;12.1;37.4;2 / 29;19908;2021-10-27 16:53:38:811
-1.606;0.205;-9.608;0.177;1.623;-9.673;0.012;-0.006;-0.108;0.005;-0.001;0.016;0.0;8.6;23.2;39.4;18.5;-9.5;-179.0;0.0;32.17;39.46914;-0.34095;1.6;NaN;0.0;12.1;37.4;2 / 29;19959;2021-10-27 16:53:38:862
-1.606;0.179;-9.663;0.192;1.614;-9.673;-0.015;0.007;-0.081;0.002;0.001;0.009;0.0;8.7;23.3;39.2;18.5;-9.5;-179.0;0.0;32.17;39.46914;-0.34095;1.6;NaN;0.0;12.1;37.4;2 / 29;20009;2021-10-27 16:53:38:912
-1.577;0.189;-9.629;0.22;1.508;-9.687;-0.028;-0.02;-0.108;0.003;0.002;0.021;0.0;8.9;23.9;38.6;18.2;-9.2;-178.8;0.0;32.17;39.46914;-0.34095;1.6;NaN;0.0;12.1;37.4;2 / 29;20058;2021-10-27 16:53:38:961
-1.642;0.169;-9.603;0.177;1.623;-9.668;0.002;0.022;-0.082;0.004;0.006;0.037;0.0;9.2;23.9;38.5;18.5;-8.8;-178.7;0.0;32.95;39.46914;-0.34095;1.6;NaN;0.0;12.1;37.4;2 / 29;20109;2021-10-27 16:53:39:012
-1.632;0.196;-9.605;0.153;1.599;-9.673;-0.036;-0.004;-0.109;0.011;0.004;0.08;0.0;9.1;23.5;38.3;17.9;-9.5;-179.0;0.0;32.95;39.46914;-0.34095;1.6;NaN;0.0;12.1;37.4;2 / 29;20159;2021-10-27 16:53:39:062
-1.584;0.146;-9.627;0.148;1.571;-9.677;-0.047;0.024;-0.042;0.015;0.002;0.095;0.0;8.8;23.0;38.5;18.5;-9.3;-179.0;0.0;32.95;39.46914;-0.34095;1.6;NaN;0.0;12.1;37.4;2 / 29;20209;2021-10-27 16:53:39:112
-1.603;0.172;-9.627;0.192;1.59;-9.677;-0.032;0.01;-0.069;0.014;0.002;0.083;0.0;8.6;22.8;39.1;18.7;-9.2;-178.9;0.0;32.95;39.46913;-0.34095;1.5;NaN;0.0;12.1;37.4;2 / 29;20258;2021-10-27 16:53:39:161
-1.577;0.201;-9.636;0.177;1.575;-9.677;-0.057;0.022;-0.056;0.013;0.002;0.062;0.0;8.3;23.3;39.2;18.5;-9.5;-179.0;0.0;32.95;39.46913;-0.34095;1.5;NaN;0.0;12.1;37.4;2 / 29;20309;2021-10-27 16:53:39:212
-1.613;0.177;-9.634;0.192;1.604;-9.673;-0.041;0.034;-0.043;0.013;0.002;0.062;0.0;8.4;23.7;39.5;16.3;-9.4;-178.9;0.0;32.95;39.46913;-0.34095;1.5;NaN;0.0;12.1;37.4;2 / 29;20358;2021-10-27 16:53:39:261
-1.589;0.181;-9.603;0.163;1.638;-9.668;-0.009;0.03;-0.071;-0.003;0.009;-0.054;0.0;8.2;23.8;39.5;16.0;-9.4;-179.1;0.0;33.9;39.46913;-0.34095;1.5;NaN;0.0;12.1;37.4;2 / 29;20408;2021-10-27 16:53:39:311
-1.586;0.16;-9.629;0.163;1.575;-9.677;0.007;-0.013;-0.044;-0.008;0.006;-0.078;0.0;8.5;23.6;39.5;16.0;-9.4;-179.1;0.0;33.9;39.46913;-0.34095;1.5;NaN;0.0;12.1;37.4;2 / 29;20459;2021-10-27 16:53:39:362
-1.613;0.155;-9.564;0.153;1.604;-9.673;0.009;0.025;-0.072;-0.008;0.003;-0.069;0.0;8.6;23.3;39.4;17.9;-9.5;-179.0;0.0;33.9;39.46913;-0.34095;1.5;NaN;0.0;12.1;37.4;2 / 29;20509;2021-10-27 16:53:39:412
-1.567;0.169;-9.646;0.192;1.547;-9.682;-0.018;0.01;-0.085;-0.006;0.001;-0.054;0.0;8.9;23.0;39.4;18.7;-9.1;-178.9;0.0;33.9;39.46913;-0.34095;1.5;NaN;0.0;12.1;37.4;2 / 29;20559;2021-10-27 16:53:39:462
-1.567;0.153;-9.624;0.163;1.58;-9.677;-0.031;0.009;-0.045;0.003;0.002;0.004;0.0;9.0;23.0;39.4;18.4;-9.3;-179.0;0.0;33.9;39.46913;-0.34095;1.5;NaN;0.0;12.1;37.4;2 / 29;20609;2021-10-27 16:53:39:512
-1.62;0.189;-9.6;0.177;1.618;-9.673;0.013;0.008;-0.045;0.01;0.003;0.048;0.0;9.1;23.3;39.4;18.2;-9.4;-179.1;0.0;33.9;39.46913;-0.34095;1.5;NaN;0.0;12.1;37.4;2 / 29;20659;2021-10-27 16:53:39:562
-1.603;0.167;-9.627;0.163;1.642;-9.668;0.015;0.007;-0.059;0.013;0.005;0.069;0.0;9.2;23.4;39.5;18.1;-9.4;-178.8;0.0;33.9;39.46913;-0.34095;1.5;NaN;0.0;12.1;37.4;2 / 29;20709;2021-10-27 16:53:39:612
-1.589;0.172;-9.591;0.177;1.609;-9.673;-0.011;-0.021;-0.073;0.011;0.001;0.061;0.0;8.8;23.3;39.4;18.5;-9.4;-179.0;0.0;32.92;39.46913;-0.34095;1.5;NaN;0.0;12.1;37.4;2 / 29;20759;2021-10-27 16:53:39:662
-1.591;0.174;-9.627;0.153;1.59;-9.677;-0.038;0.007;-0.073;0.005;-0.001;0.036;0.0;8.9;23.0;39.4;18.2;-9.5;-179.2;0.0;32.92;39.46913;-0.34095;1.5;NaN;0.0;12.1;37.4;2 / 29;20809;2021-10-27 16:53:39:712
-1.56;0.141;-9.586;0.177;1.58;-9.677;-0.025;0.009;-0.059;0.001;-0.002;0.027;0.0;8.7;23.0;39.2;18.4;-9.2;-179.0;0.0;32.92;39.46913;-0.34095;1.5;NaN;0.0;12.1;37.4;2 / 29;20859;2021-10-27 16:53:39:762
-1.553;0.167;-9.61;0.148;1.575;-9.677;-0.052;-0.004;-0.059;0.001;-0.002;0.027;0.0;8.7;22.8;39.1;18.5;-9.3;-179.0;0.0;32.92;39.46913;-0.34095;1.5;NaN;0.0;12.1;37.4;2 / 29;20908;2021-10-27 16:53:39:811
-1.565;0.203;-9.62;0.177;1.614;-9.673;0.004;-0.031;-0.1;0.001;-0.002;0.027;0.0;8.6;22.2;39.1;19.2;-9.4;-178.9;0.0;32.92;39.46913;-0.34095;1.5;NaN;0.0;12.1;37.4;2 / 29;20959;2021-10-27 16:53:39:862
-1.61;0.15;-9.605;0.153;1.595;-9.673;-0.009;0.023;-0.087;-0.003;0.002;-0.016;0.0;8.8;22.2;39.2;18.9;-9.5;-179.1;0.0;32.92;39.46913;-0.34095;1.5;NaN;0.0;12.1;37.4;2 / 29;21008;2021-10-27 16:53:39:911
-1.589;0.193;-9.593;0.206;1.595;-9.673;-0.023;-0.032;-0.059;-0.001;-0.001;-0.007;0.0;9.0;22.7;38.9;18.8;-9.4;-179.2;0.0;31.32;39.46913;-0.34095;1.5;NaN;0.0;12.1;37.4;2 / 29;21059;2021-10-27 16:53:39:962
-1.598;0.181;-9.617;0.177;1.59;-9.677;-0.01;-0.005;-0.059;-0.001;-0.002;-0.006;0.0;9.3;23.0;38.8;18.6;-9.2;-179.0;0.0;31.32;39.46913;-0.34095;1.5;NaN;0.0;12.1;37.4;2 / 29;21109;2021-10-27 16:53:40:012
-1.594;0.162;-9.615;0.148;1.604;-9.673;0.003;0.008;-0.087;0.01;-0.002;0.051;0.0;9.1;23.5;38.9;17.8;-9.4;-179.0;0.0;31.32;39.46913;-0.34095;1.5;NaN;0.0;12.1;37.4;2 / 29;21159;2021-10-27 16:53:40:062
-1.582;0.172;-9.61;0.148;1.585;-9.677;0.003;0.008;-0.1;0.012;-0.002;0.062;0.0;8.9;23.6;38.8;17.8;-9.5;-179.0;0.0;31.32;39.46913;-0.34095;1.5;NaN;0.0;12.1;37.4;2 / 29;21211;2021-10-27 16:53:40:114
-1.598;0.146;-9.639;0.139;1.58;-9.677;0.029;0.02;-0.073;0.009;-0.001;0.03;0.0;8.5;23.6;39.2;17.9;-9.3;-179.0;0.0;31.32;39.46913;-0.34094;1.2;NaN;0.0;12.1;37.4;2 / 29;21259;2021-10-27 16:53:40:162
-1.584;0.196;-9.61;0.177;1.58;-9.677;-0.025;0.018;-0.114;0.006;-0.001;0.011;0.0;8.1;23.8;39.2;16.1;-9.3;-179.0;0.0;31.32;39.46913;-0.34094;1.2;NaN;0.0;12.1;37.4;2 / 29;21309;2021-10-27 16:53:40:212
-1.565;0.189;-9.62;0.148;1.599;-9.673;0.002;0.003;-0.059;-0.009;0.001;-0.068;0.0;8.5;23.9;39.2;16.2;-9.3;-179.0;0.0;33.81;39.46913;-0.34094;1.2;NaN;0.0;12.1;37.4;2 / 29;21359;2021-10-27 16:53:40:262
-1.615;0.16;-9.605;0.163;1.575;-9.677;0.001;0.002;-0.046;-0.014;0.0;-0.092;0.0;8.7;23.9;38.9;17.8;-9.4;-179.0;0.0;33.81;39.46913;-0.34094;1.2;NaN;0.0;12.1;37.4;2 / 29;21408;2021-10-27 16:53:40:311
-1.586;0.184;-9.593;0.153;1.604;-9.673;-0.027;0.029;-0.073;-0.008;0.0;-0.048;0.0;9.2;23.0;38.8;18.6;-9.4;-178.9;0.0;33.81;39.46913;-0.34094;1.2;NaN;0.0;12.1;37.4;2 / 29;21459;2021-10-27 16:53:40:362
-1.62;0.165;-9.615;0.139;1.58;-9.677;-0.014;0.002;-0.086;-0.004;-0.001;-0.028;0.0;9.2;22.7;38.6;18.3;-9.4;-179.1;0.0;33.81;39.46913;-0.34094;1.2;NaN;0.0;12.1;37.4;2 / 29;21509;2021-10-27 16:53:40:412
-1.567;0.134;-9.612;0.192;1.628;-9.668;-0.014;0.016;-0.059;-0.004;-0.001;-0.028;0.0;9.2;22.3;39.1;19.1;-9.6;-178.9;0.0;33.81;39.46913;-0.34094;1.2;NaN;0.0;12.1;37.4;2 / 29;21559;2021-10-27 16:53:40:462
-1.577;0.186;-9.629;0.163;1.566;-9.677;-0.028;-0.026;-0.072;-0.004;-0.001;-0.028;0.0;9.1;22.8;38.9;18.3;-9.3;-179.1;0.0;33.81;39.46913;-0.34094;1.2;NaN;0.0;12.1;37.4;2 / 29;21609;2021-10-27 16:53:40:512
-1.62;0.201;-9.629;0.163;1.618;-9.673;-0.014;-0.039;-0.045;0.011;-0.001;0.085;0.0;9.6;23.5;38.9;20.2;-9.3;-179.0;0.0;33.81;39.46913;-0.34094;1.2;NaN;0.0;12.1;37.4;2 / 29;21659;2021-10-27 16:53:40:562
-1.572;0.177;-9.622;0.163;1.561;-9.682;-0.041;0.004;-0.059;0.009;-0.001;0.082;0.0;9.4;23.7;38.8;17.6;-9.6;-179.2;0.0;33.63;39.46913;-0.34094;1.2;NaN;0.0;12.1;37.4;2 / 29;21709;2021-10-27 16:53:40:612
-1.57;0.126;-9.622;0.139;1.614;-9.673;-0.013;0.02;-0.045;0.008;0.002;0.064;0.0;9.4;23.8;39.1;17.8;-9.3;-179.1;0.0;33.63;39.46913;-0.34094;1.2;NaN;0.0;12.1;37.4;2 / 29;21759;2021-10-27 16:53:40:662
-1.608;0.177;-9.605;0.163;1.623;-9.668;0.002;0.021;-0.059;0.007;0.0;0.048;0.0;9.1;23.6;39.2;18.1;-9.3;-178.9;0.0;33.63;39.46913;-0.34094;1.2;NaN;0.0;12.1;37.4;2 / 29;21809;2021-10-27 16:53:40:712
-1.553;0.165;-9.634;0.177;1.561;-9.682;0.002;0.032;-0.073;0.01;-0.003;0.022;0.0;9.0;23.6;39.2;18.5;-9.2;-179.0;0.0;33.63;39.46913;-0.34094;1.2;NaN;0.0;12.1;37.4;2 / 29;21859;2021-10-27 16:53:40:762
-1.531;0.193;-9.617;0.22;1.575;-9.677;-0.001;-0.025;-0.086;0.009;-0.006;0.002;0.0;8.8;23.6;39.2;17.7;-9.5;-179.1;0.0;33.63;39.46913;-0.34094;1.2;NaN;0.0;12.1;37.4;2 / 29;21908;2021-10-27 16:53:40:811
-1.596;0.186;-9.629;0.163;1.618;-9.673;-0.005;0.0;-0.072;-0.009;-0.009;-0.078;0.0;8.8;23.9;38.8;17.8;-9.5;-179.0;0.0;33.63;39.46913;-0.34094;1.2;NaN;0.0;12.1;37.4;2 / 29;21959;2021-10-27 16:53:40:862
-1.57;0.174;-9.598;0.22;1.561;-9.677;0.058;0.011;-0.112;-0.009;-0.006;-0.068;0.0;9.1;24.1;38.5;17.7;-9.9;-179.1;0.0;31.5;39.46913;-0.34094;1.2;NaN;0.0;12.1;37.4;2 / 29;22009;2021-10-27 16:53:40:912
-1.589;0.189;-9.646;0.163;1.58;-9.677;-0.039;-0.016;-0.043;-0.009;-0.003;-0.034;0.0;9.2;23.8;38.8;17.6;-9.4;-179.2;0.0;31.5;39.46913;-0.34094;1.2;NaN;0.0;12.1;37.4;2 / 29;22059;2021-10-27 16:53:40:962
-1.603;0.179;-9.617;0.163;1.561;-9.682;-0.013;0.0;-0.098;-0.006;0.001;-0.014;0.0;9.2;23.5;38.8;18.2;-9.3;-178.8;0.0;31.5;39.46913;-0.34094;1.2;NaN;0.0;12.1;37.4;2 / 29;22109;2021-10-27 16:53:41:012
-1.622;0.172;-9.636;0.163;1.614;-9.673;0.001;0.002;-0.03;-0.001;0.001;0.016;0.0;9.5;23.3;38.8;18.3;-9.5;-179.0;0.0;31.5;39.46913;-0.34094;1.2;NaN;0.0;12.1;37.4;2 / 29;22159;2021-10-27 16:53:41:062
-1.613;0.179;-9.586;0.177;1.609;-9.673;-0.012;-0.024;-0.084;0.005;0.001;0.048;0.0;9.6;23.0;38.8;18.3;-9.5;-179.0;0.0;31.5;39.46913;-0.34094;1.2;NaN;0.0;12.1;37.4;0 / 28;22208;2021-10-27 16:53:41:111
-1.627;0.198;-9.624;0.192;1.604;-9.673;-0.012;-0.01;-0.03;0.011;-0.002;0.078;0.0;9.7;23.0;38.9;20.2;-9.5;-179.0;0.0;31.5;39.46913;-0.34094;1.2;NaN;0.0;12.1;37.4;0 / 28;22259;2021-10-27 16:53:41:162
-1.598;0.177;-9.61;0.163;1.575;-9.677;0.014;0.005;-0.057;0.011;-0.005;0.076;0.0;9.3;23.1;38.9;18.4;-9.4;-179.0;0.0;31.5;39.46913;-0.34094;1.2;NaN;0.0;12.1;37.4;0 / 28;22308;2021-10-27 16:53:41:211
-1.582;0.186;-9.61;0.192;1.618;-9.673;-0.041;0.019;-0.043;0.008;-0.002;0.059;0.0;9.1;23.3;39.1;18.6;-9.3;-178.9;0.0;31.67;39.46913;-0.34094;1.2;NaN;0.0;12.1;37.4;0 / 28;22358;2021-10-27 16:53:41:261
-1.606;0.203;-9.624;0.177;1.623;-9.673;-0.001;0.02;-0.07;0.004;-0.001;0.04;0.0;9.1;23.6;39.2;18.0;-9.3;-179.0;0.0;31.67;39.46913;-0.34094;1.2;NaN;0.0;12.1;37.4;0 / 28;22408;2021-10-27 16:53:41:311
-1.61;0.174;-9.639;0.192;1.604;-9.673;-0.027;-0.007;-0.057;-0.005;0.003;-0.021;0.0;9.4;23.6;39.2;18.0;-9.4;-178.9;0.0;31.67;39.46913;-0.34094;1.2;NaN;0.0;12.1;37.4;0 / 28;22459;2021-10-27 16:53:41:362
-1.627;0.184;-9.615;0.206;1.59;-9.673;-0.012;-0.005;-0.071;-0.008;0.003;-0.034;0.0;9.4;23.6;39.4;17.9;-9.4;-179.0;0.0;31.67;39.46913;-0.34094;1.2;NaN;0.0;12.1;37.4;0 / 28;22508;2021-10-27 16:53:41:411
-1.622;0.196;-9.612;0.177;1.604;-9.673;0.016;-0.018;-0.071;-0.009;0.001;-0.027;0.0;9.1;23.6;39.1;18.0;-9.6;-178.9;0.0;31.67;39.46913;-0.34094;1.2;NaN;0.0;12.1;37.4;0 / 28;22558;2021-10-27 16:53:41:461
-1.613;0.155;-9.622;0.148;1.642;-9.668;0.002;0.012;-0.071;-0.008;-0.001;-0.024;0.0;9.0;23.6;39.1;17.9;-9.4;-179.0;0.0;31.67;39.46913;-0.34094;1.2;NaN;0.0;12.1;37.4;0 / 28;22608;2021-10-27 16:53:41:511
-1.579;0.217;-9.593;0.206;1.609;-9.673;0.001;-0.014;-0.016;-0.007;-0.003;-0.025;0.0;8.8;23.7;38.9;18.1;-9.4;-178.8;0.0;30.81;39.46913;-0.34094;1.2;NaN;0.0;12.1;37.4;0 / 28;22658;2021-10-27 16:53:41:561
-1.63;0.165;-9.596;0.177;1.676;-9.663;-0.014;0.041;-0.138;-0.008;-0.003;-0.037;0.0;9.1;23.6;39.1;17.7;-9.7;-179.1;0.0;30.81;39.46913;-0.34094;1.2;NaN;0.0;12.1;37.4;0 / 28;22708;2021-10-27 16:53:41:611
-1.613;0.181;-9.605;0.206;1.633;-9.668;-0.003;-0.012;-0.11;-0.012;-0.004;-0.067;0.0;8.8;23.0;39.4;18.4;-9.6;-179.0;0.0;30.81;39.46913;-0.34094;1.2;NaN;0.0;12.1;37.4;0 / 28;22758;2021-10-27 16:53:41:661
-1.627;0.191;-9.636;0.192;1.609;-9.673;0.008;-0.025;-0.042;-0.01;-0.005;-0.054;0.0;9.0;23.2;39.2;18.7;-9.5;-178.8;0.0;30.81;39.46913;-0.34094;1.2;NaN;0.0;12.1;37.4;0 / 28;22808;2021-10-27 16:53:41:711
-1.606;0.203;-9.608;0.192;1.609;-9.673;-0.023;-0.011;-0.082;-0.01;-0.005;-0.054;0.0;8.7;23.3;39.4;18.8;-9.5;-178.7;0.0;30.81;39.46913;-0.34094;1.2;NaN;0.0;12.1;37.4;0 / 28;22859;2021-10-27 16:53:41:762
-1.615;0.177;-9.629;0.163;1.618;-9.673;0.003;0.032;-0.041;-0.01;-0.004;-0.036;0.0;9.4;23.8;39.4;18.0;-9.6;-178.9;0.0;30.81;39.46913;-0.34094;1.2;NaN;0.0;12.1;37.4;0 / 28;22908;2021-10-27 16:53:41:811
-1.606;0.181;-9.586;0.177;1.633;-9.668;0.001;-0.008;-0.082;-0.01;-0.004;-0.036;0.0;9.5;23.5;39.4;18.0;-9.6;-178.9;0.0;30.81;39.46913;-0.34094;1.2;NaN;0.0;12.1;37.4;0 / 28;22958;2021-10-27 16:53:41:861
-1.613;0.172;-9.612;0.153;1.647;-9.668;-0.001;-0.021;-0.067;-0.01;-0.004;-0.036;0.0;9.7;23.5;39.4;17.9;-9.7;-178.9;0.0;31.44;39.46913;-0.34094;1.2;NaN;0.0;12.1;37.4;0 / 28;23009;2021-10-27 16:53:41:912
-1.651;0.189;-9.579;0.192;1.633;-9.668;-0.016;0.007;-0.108;0.008;-0.004;0.053;0.0;9.0;23.3;38.8;18.5;-9.6;-178.9;0.0;31.44;39.46913;-0.34094;1.2;NaN;0.0;12.1;37.4;0 / 28;23059;2021-10-27 16:53:41:962
-1.603;0.203;-9.629;0.177;1.642;-9.668;-0.004;0.007;-0.04;0.004;-0.003;0.028;0.0;8.8;23.3;38.9;18.4;-9.6;-179.0;0.0;31.44;39.46913;-0.34094;1.2;NaN;0.0;12.1;37.4;0 / 28;23108;2021-10-27 16:53:42:011
-1.608;0.208;-9.497;0.192;1.671;-9.663;0.008;-0.006;-0.094;0.002;-0.003;0.018;0.0;8.5;23.4;38.8;18.4;-9.7;-179.0;0.0;31.44;39.46913;-0.34094;1.2;NaN;0.0;12.1;37.4;0 / 28;23159;2021-10-27 16:53:42:062
-1.639;0.184;-9.608;0.192;1.652;-9.663;0.005;-0.019;-0.066;-0.01;-0.005;-0.052;0.0;8.9;23.3;38.9;17.9;-9.7;-178.9;0.0;31.44;39.46913;-0.34094;1.2;NaN;0.0;12.1;37.4;2 / 29;23209;2021-10-27 16:53:42:112
-1.63;0.186;-9.605;0.206;1.633;-9.668;-0.011;-0.004;-0.066;-0.011;-0.004;-0.054;0.0;9.1;23.6;38.9;18.0;-9.5;-178.9;0.0;31.44;39.46912;-0.34093;0.6;NaN;0.0;12.1;37.4;2 / 29;23259;2021-10-27 16:53:42:162
-1.644;0.184;-9.588;0.177;1.604;-9.673;0.014;-0.003;-0.079;-0.008;-0.003;-0.034;0.0;9.1;23.3;38.8;18.4;-9.6;-179.0;0.0;31.48;39.46912;-0.34093;0.6;NaN;0.0;12.1;37.4;2 / 29;23309;2021-10-27 16:53:42:212
-1.63;0.222;-9.615;0.192;1.633;-9.668;-0.001;-0.016;-0.079;-0.003;-0.001;-0.005;0.0;8.9;23.6;38.6;18.6;-9.5;-178.9;0.0;31.48;39.46912;-0.34093;0.6;NaN;0.0;12.1;37.4;2 / 29;23359;2021-10-27 16:53:42:262
-1.637;0.16;-9.574;0.177;1.642;-9.668;0.013;-0.015;-0.079;-0.003;-0.001;-0.004;0.0;8.7;23.7;38.9;17.9;-9.6;-179.0;0.0;31.48;39.46912;-0.34093;0.6;NaN;0.0;12.1;37.4;2 / 29;23409;2021-10-27 16:53:42:312
-1.656;0.165;-9.574;0.177;1.681;-9.658;-0.002;0.04;-0.106;-0.004;-0.001;-0.014;0.0;8.8;23.9;38.9;18.0;-9.6;-178.9;0.0;31.48;39.46912;-0.34093;0.6;NaN;0.0;12.1;37.4;2 / 29;23458;2021-10-27 16:53:42:361
-1.596;0.196;-9.636;0.206;1.59;-9.673;-0.043;-0.014;-0.051;-0.004;-0.001;-0.014;0.0;9.0;23.8;38.8;18.0;-9.4;-178.9;0.0;31.48;39.46912;-0.34093;0.6;NaN;0.0;12.1;37.4;2 / 29;23509;2021-10-27 16:53:42:412
-1.625;0.191;-9.665;0.22;1.59;-9.673;-0.042;0.0;-0.024;-0.004;-0.001;-0.014;0.0;9.3;23.3;38.6;18.3;-9.4;-179.1;0.0;31.48;39.46912;-0.34093;0.6;NaN;0.0;12.1;37.4;2 / 29;23559;2021-10-27 16:53:42:462
-1.615;0.174;-9.564;0.177;1.638;-9.668;-0.04;0.041;-0.106;-0.004;-0.001;-0.014;0.0;9.1;23.0;38.8;18.9;-9.2;-178.7;0.0;31.48;39.46912;-0.34093;0.6;NaN;0.0;12.1;37.4;2 / 29;23608;2021-10-27 16:53:42:511
-1.589;0.229;-9.584;0.235;1.585;-9.673;-0.023;-0.001;-0.039;0.006;0.009;0.022;0.0;9.0;23.3;38.9;18.5;-9.6;-178.9;0.0;47.57;39.46912;-0.34093;0.6;NaN;0.0;12.1;37.4;2 / 29;23659;2021-10-27 16:53:42:562
-1.505;0.196;-9.605;0.192;1.532;-9.687;-0.084;-0.002;-0.054;0.008;0.014;0.04;0.0;8.8;23.4;39.2;19.2;-9.0;-178.5;0.0;47.57;39.46912;-0.34093;0.6;NaN;0.0;12.1;37.4;2 / 29;23709;2021-10-27 16:53:42:612
-1.517;0.11;-9.579;0.081;1.528;-9.687;-0.118;-0.002;-0.082;0.008;0.019;0.044;0.0;8.7;23.1;38.9;18.7;-8.8;-179.0;0.0;47.57;39.46912;-0.34093;0.6;NaN;0.0;12.1;37.4;2 / 29;23759;2021-10-27 16:53:42:662
-1.682;0.088;-9.734;-0.014;1.623;-9.673;0.02;0.079;0.079;0.006;0.026;0.02;0.0;8.6;23.0;39.1;17.7;-9.1;-179.7;0.0;47.57;39.46912;-0.34093;0.6;NaN;0.0;12.1;37.4;2 / 29;23809;2021-10-27 16:53:42:712
-1.673;0.165;-9.553;0.192;1.671;-9.663;0.137;-0.048;-0.072;0.002;0.014;-0.023;0.0;8.8;22.9;38.8;17.8;-10.2;-179.3;0.0;47.57;39.46912;-0.34093;0.6;NaN;0.0;12.1;37.4;2 / 29;23859;2021-10-27 16:53:42:762
-1.656;0.141;-9.67;0.148;1.652;-9.668;0.016;0.0;-0.046;0.013;0.002;-0.031;0.0;8.7;23.5;38.9;18.0;-9.5;-178.9;0.0;47.57;39.46912;-0.34093;0.6;NaN;0.0;12.1;37.4;2 / 29;23908;2021-10-27 16:53:42:811
-1.51;0.067;-9.742;0.081;1.561;-9.682;-0.075;0.021;0.065;0.0;-0.019;-0.059;0.0;8.8;23.5;38.9;17.4;-9.5;-179.3;0.0;41.99;39.46912;-0.34093;0.6;NaN;0.0;12.1;37.4;2 / 29;23959;2021-10-27 16:53:42:862
-1.536;0.131;-9.679;0.096;1.542;-9.687;-0.08;0.019;-0.03;0.001;-0.007;-0.03;0.0;8.9;23.8;39.1;17.5;-8.8;-179.4;0.0;41.99;39.46912;-0.34093;0.6;NaN;0.0;12.1;37.4;2 / 29;24008;2021-10-27 16:53:42:911
-1.687;0.105;-9.665;0.096;1.686;-9.658;-0.013;0.017;-0.043;0.003;-0.002;-0.019;0.0;8.8;23.5;39.1;17.2;-9.9;-179.4;0.0;41.99;39.46912;-0.34093;0.6;NaN;0.0;12.1;37.4;2 / 29;24059;2021-10-27 16:53:42:962
-1.716;0.186;-9.62;0.163;1.676;-9.663;0.084;0.0;0.038;0.006;0.001;-0.006;0.0;8.8;23.3;38.9;18.2;-9.9;-179.0;0.0;41.99;39.46912;-0.34093;0.6;NaN;0.0;12.1;37.4;2 / 29;24109;2021-10-27 16:53:43:012
-1.534;0.253;-9.579;0.273;1.513;-9.687;-0.067;-0.166;0.066;0.003;-0.002;-0.006;0.0;8.7;23.3;38.3;19.6;-9.2;-178.2;0.0;41.99;39.46912;-0.34093;0.6;NaN;0.0;12.1;37.4;2 / 29;24159;2021-10-27 16:53:43:062
-1.558;0.143;-9.859;0.172;1.561;-9.682;-0.054;0.024;0.188;0.003;-0.002;-0.006;0.0;8.8;23.0;38.6;18.6;-9.2;-179.0;0.0;41.99;39.46912;-0.34093;0.6;NaN;0.0;12.1;37.4;2 / 29;24208;2021-10-27 16:53:43:111
-1.732;0.098;-9.579;0.043;1.8;-9.639;0.112;0.098;-0.084;-0.008;0.005;0.02;0.0;8.9;23.0;38.5;18.6;-9.2;-179.0;0.0;57.96;39.46911;-0.34091;0.4;NaN;0.0;12.1;37.4;2 / 29;24258;2021-10-27 16:53:43:161
-2.017;0.023;-9.689;-0.053;1.997;-9.601;0.358;0.059;-0.003;0.001;0.002;0.021;0.0;9.0;23.0;38.9;16.8;-11.1;-179.9;0.0;57.96;39.46911;-0.34091;0.4;NaN;0.0;12.1;37.4;2 / 29;24309;2021-10-27 16:53:43:212
-1.881;0.552;-10.003;0.579;1.93;-9.596;0.158;-0.295;0.375;-0.135;0.057;0.124;0.0;8.8;22.9;39.1;15.7;-12.9;179.7;0.0;57.96;39.46911;-0.34091;0.4;NaN;0.0;12.1;37.4;2 / 29;24359;2021-10-27 16:53:43:262
-2.01;0.509;-8.995;0.474;1.949;-9.601;0.136;-0.183;-0.403;-0.131;0.051;0.112;0.0;8.6;22.9;39.1;21.2;-10.4;-176.4;0.0;57.96;39.46911;-0.34091;0.4;NaN;0.0;12.1;37.4;2 / 29;24409;2021-10-27 16:53:43:312
-1.036;0.193;-9.277;0.417;1.408;-9.697;-0.724;-0.095;0.673;-0.139;0.027;0.056;0.0;8.5;22.5;39.2;19.8;-12.6;-176.9;0.0;57.96;39.46911;-0.34091;0.4;NaN;0.0;12.1;37.4;2 / 29;24459;2021-10-27 16:53:43:362
-0.902;-0.081;-9.167;-0.22;1.178;-9.735;-0.531;0.737;-0.607;0.034;0.023;0.019;0.0;8.2;22.5;39.7;15.8;-8.1;-180.0;0.0;57.96;39.46911;-0.34091;0.4;NaN;0.0;12.1;37.4;2 / 29;24509;2021-10-27 16:53:43:412
0.093;0.27;-9.114;0.254;-0.153;-9.802;-1.127;0.27;-0.393;0.08;0.105;0.12;0.0;8.4;22.7;39.7;22.0;0.9;-178.5;0.0;57.96;39.46911;-0.34091;0.4;NaN;0.0;12.1;37.4;2 / 29;24559;2021-10-27 16:53:43:462
-0.071;0.339;-9.979;0.33;0.081;-9.802;-1.144;-0.137;0.716;0.133;0.293;0.442;0.0;8.4;22.7;39.7;21.7;-2.0;-177.6;0.0;60.58;39.46911;-0.34091;0.4;NaN;0.0;12.1;37.4;2 / 29;24609;2021-10-27 16:53:43:512
-0.73;0.574;-10.0;0.421;0.56;-9.783;-0.169;-0.145;0.546;0.125;0.365;0.564;0.0;7.7;22.2;39.5;21.1;-1.2;-178.8;0.0;60.58;39.46911;-0.34091;0.4;NaN;0.0;12.1;37.4;2 / 29;24659;2021-10-27 16:53:43:562
-0.208;0.213;-9.316;0.565;0.215;-9.787;-0.744;0.107;-0.529;0.081;0.362;0.515;0.0;7.0;22.4;39.7;20.1;-1.1;-178.0;0.0;60.58;39.46911;-0.34091;0.4;NaN;0.0;12.1;37.4;2 / 29;24709;2021-10-27 16:53:43:612
-0.378;-0.497;-10.105;-0.455;0.105;-9.797;-1.041;-0.111;0.698;0.023;0.299;0.336;0.0;6.5;22.3;40.1;10.5;-0.6;177.3;0.0;60.58;39.46911;-0.34091;0.4;NaN;0.0;12.1;37.4;2 / 29;24758;2021-10-27 16:53:43:661
0.162;0.035;-9.706;0.239;-0.311;-9.802;-0.701;0.868;-0.35;0.029;0.275;0.203;0.0;6.4;22.2;40.3;28.0;9.6;-177.1;0.0;60.58;39.46911;-0.34091;0.4;NaN;0.0;12.1;37.4;2 / 29;24809;2021-10-27 16:53:43:712
-1.16;0.799;-11.23;-0.153;2.107;-9.577;0.554;-0.012;0.745;0.049;0.2;0.085;0.0;6.5;22.2;40.4;15.3;-6.3;-178.3;0.0;60.58;39.46911;-0.34091;0.4;NaN;0.0;12.1;37.4;2 / 29;24859;2021-10-27 16:53:43:762
-0.232;1.235;-7.846;1.389;0.254;-9.706;1.306;0.914;1.371;0.207;-0.209;-0.558;0.0;6.4;22.1;40.1;13.1;-11.5;-178.8;0.0;61.72;39.46911;-0.34091;0.4;NaN;0.0;12.1;37.4;2 / 29;24909;2021-10-27 16:53:43:812
-1.266;0.301;-10.924;-0.551;3.596;-9.108;0.512;-0.167;1.05;0.098;-0.188;-0.479;0.0;6.7;22.4;40.1;17.5;-5.6;-178.4;0.0;61.72;39.46911;-0.34091;0.4;NaN;0.0;12.1;37.4;2 / 29;24959;2021-10-27 16:53:43:862
4.356;4.03;10.551;4.08;8.801;1.46;-6.696;-2.569;-1.81;-0.142;0.184;0.169;0.0;7.4;22.2;40.4;97.8;35.3;-161.4;0.0;61.72;39.46911;-0.34091;0.4;NaN;0.0;12.1;37.4;2 / 29;25009;2021-10-27 16:53:43:912
-1.326;-0.902;-10.213;0.527;1.958;-9.596;0.744;0.942;-0.01;-0.289;0.033;0.04;0.0;8.4;22.1;40.3;15.4;-7.4;179.2;0.0;61.72;39.46911;-0.34091;0.4;NaN;0.0;12.1;37.4;2 / 29;25059;2021-10-27 16:53:43:962
-0.809;0.593;-10.512;0.498;0.862;-9.754;-0.02;-0.209;0.756;-0.265;0.027;0.099;0.0;8.3;22.1;40.1;19.1;-11.5;-176.9;0.0;61.72;39.46911;-0.34091;0.4;NaN;0.0;12.1;37.4;2 / 29;25108;2021-10-27 16:53:44:011
-1.022;0.71;-7.358;1.149;0.35;-9.735;0.565;-0.05;-0.562;-0.265;0.027;0.099;0.0;8.5;21.5;40.0;29.5;-2.0;-173.3;0.0;61.72;39.46911;-0.34091;0.4;NaN;0.0;12.1;37.4;2 / 29;25158;2021-10-27 16:53:44:061
-2.731;-0.576;-11.776;-0.445;2.088;-9.572;0.963;-0.164;3.934;-0.02;-0.225;-0.201;0.0;7.7;22.0;39.8;14.0;-14.6;179.7;0.0;61.72;39.46911;-0.34091;0.4;NaN;0.0;12.1;37.4;2 / 29;25209;2021-10-27 16:53:44:112
-2.159;0.27;-10.003;0.436;2.097;-9.572;0.467;0.287;-0.418;-0.017;-0.166;-0.149;0.0;7.6;22.2;40.1;13.8;-10.0;178.6;0.0;64.03;39.46911;-0.34091;0.3;NaN;0.0;12.2;37.4;2 / 29;25259;2021-10-27 16:53:44:162
-1.709;0.198;-9.035;0.187;1.791;-9.639;0.896;0.262;-0.76;0.003;-0.211;-0.296;0.0;7.8;22.7;39.8;16.8;-14.0;-178.0;0.0;64.03;39.46911;-0.34091;0.3;NaN;0.0;12.2;37.4;2 / 29;25308;2021-10-27 16:53:44:211
-1.699;0.452;-8.968;0.45;1.935;-9.606;0.654;0.405;-1.11;0.003;-0.211;-0.296;0.0;8.8;22.5;39.4;19.7;-11.4;-177.3;0.0;64.03;39.46911;-0.34091;0.3;NaN;0.0;12.2;37.4;2 / 29;25358;2021-10-27 16:53:44:261
-3.781;-0.543;-11.25;0.589;2.528;-9.457;2.644;0.692;1.255;0.069;-0.505;-0.886;0.0;9.5;22.7;38.8;10.5;-16.7;175.9;0.0;64.03;39.46911;-0.34091;0.3;NaN;0.0;12.2;37.4;2 / 29;25409;2021-10-27 16:53:44:312
-2.408;0.967;-9.184;0.268;2.284;-9.534;0.78;-0.674;-0.089;0.037;-0.486;-0.814;0.0;10.7;22.7;38.2;18.6;-16.4;-180.0;0.0;64.03;39.46911;-0.34091;0.3;NaN;0.0;12.2;37.4;2 / 29;25458;2021-10-27 16:53:44:361
-5.232;-1.294;-8.559;-0.493;3.721;-9.06;1.514;0.294;-1.277;0.026;-0.473;-0.468;15.0;11.4;22.6;38.2;34.9;-9.8;-165.9;0.0;64.03;39.46911;-0.34091;0.3;NaN;0.0;12.2;37.4;2 / 29;25508;2021-10-27 16:53:44:411
-3.533;2.649;-8.696;2.94;3.802;-8.547;0.953;-2.07;1.027;-0.061;-0.502;-0.321;15.0;11.8;22.0;38.5;15.4;-22.3;176.9;0.0;64.03;39.46911;-0.34091;0.3;NaN;0.0;12.2;37.4;2 / 29;25559;2021-10-27 16:53:44:462
-3.322;6.343;-10.038;4.922;1.776;-8.294;1.634;-6.106;0.683;-0.747;-0.477;-0.019;15.0;11.8;21.2;38.6;36.0;-22.8;-161.0;0.0;61.76;39.46911;-0.34091;0.3;NaN;0.0;12.2;37.4;2 / 29;25608;2021-10-27 16:53:44:511
-1.294;3.03;-10.888;2.504;1.173;-9.409;0.977;-3.017;0.882;-0.997;-0.123;0.557;15.0;12.7;19.9;39.2;43.3;-6.9;-165.1;0.0;61.76;39.46911;-0.34091;0.3;NaN;0.0;12.2;37.4;2 / 29;25659;2021-10-27 16:53:44:562
-3.597;4.629;-10.335;3.251;2.351;-8.95;1.083;-3.836;-0.25;-1.366;-0.076;0.703;15.0;13.8;18.1;39.4;58.0;-21.5;-135.5;0.0;61.76;39.46911;-0.34091;0.3;NaN;0.0;12.2;37.4;2 / 29;25708;2021-10-27 16:53:44:611
-2.965;-1.259;-13.423;-0.848;2.538;-9.433;1.853;0.206;3.242;-1.28;-0.063;0.697;15.0;15.7;15.7;39.5;44.2;-15.0;-165.2;0.0;61.76;39.46911;-0.34091;0.3;NaN;0.0;12.2;37.4;2 / 29;25759;2021-10-27 16:53:44:662
-6.256;1.16;-3.968;1.58;7.724;-5.827;4.052;0.927;-5.258;-0.159;-0.347;-0.054;15.0;16.6;12.9;40.1;38.5;-15.8;-174.5;0.0;61.76;39.46911;-0.34091;0.3;NaN;0.0;12.2;37.4;2 / 29;25809;2021-10-27 16:53:44:712
-2.333;-0.289;-15.821;0.134;2.634;-9.448;-0.206;2.125;3.226;0.168;-0.393;-0.164;59.0;17.2;7.5;40.7;48.3;-13.0;-177.4;5.0;61.76;39.46911;-0.34091;0.3;NaN;0.0;12.2;37.4;2 / 29;25859;2021-10-27 16:53:44:762
-2.065;3.566;-4.528;5.004;2.624;-8.016;-0.507;-3.543;2.396;0.416;-0.198;0.625;59.0;16.4;1.7;41.3;77.9;-9.8;-153.4;5.0;61.85;39.46911;-0.34091;0.3;NaN;0.0;12.2;37.4;2 / 29;25909;2021-10-27 16:53:44:812
1.335;3.209;-8.657;-0.215;-3.467;-9.17;-4.831;0.912;-1.427;-0.004;-0.145;0.957;59.0;15.4;-9.5;40.4;94.4;-4.8;-157.7;5.0;61.85;39.46911;-0.34091;0.3;NaN;0.0;12.2;37.4;2 / 29;25958;2021-10-27 16:53:44:861
1.675;5.522;0.773;9.299;-3.108;-0.182;-3.5;-1.223;-11.387;-0.061;-0.1;3.065;59.0;16.3;-18.0;36.4;150.8;20.7;178.7;5.0;61.85;39.46911;-0.34091;0.3;NaN;0.0;12.2;37.4;2 / 29;26008;2021-10-27 16:53:44:911
-2.285;6.752;3.659;8.619;2.715;3.807;0.131;-4.078;-10.916;-3.249;0.265;1.486;59.0;17.8;-29.2;26.8;148.0;-14.0;-74.7;5.0;61.85;39.46911;-0.34091;0.3;NaN;0.0;12.2;37.4;2 / 29;26058;2021-10-27 16:53:44:961
-2.752;3.777;6.189;5.507;2.638;7.676;-3.914;0.979;-17.134;-7.477;0.239;1.437;59.0;18.6;-34.6;19.0;200.1;9.1;-20.2;0.0;61.85;39.46911;-0.34091;0.3;NaN;0.0;12.2;37.4;2 / 29;26109;2021-10-27 16:53:45:012
0.785;5.828;5.694;5.416;-0.982;8.121;-2.142;3.35;-9.852;-6.122;-0.06;0.902;59.0;15.9;-38.7;9.2;185.1;-0.8;-45.3;0.0;61.85;39.46911;-0.34091;0.3;NaN;0.0;12.2;37.4;2 / 29;26159;2021-10-27 16:53:45:062
0.461;4.133;9.205;4.094;-0.484;8.897;-1.924;6.266;-10.979;-6.089;-0.117;0.938;390.0;13.6;-39.9;3.5;193.7;5.7;-33.7;0.0;61.28;39.4691;-0.34089;0.2;NaN;0.0;12.2;37.4;3 / 29;26209;2021-10-27 16:53:45:112
0.15;5.151;8.219;5.076;-0.067;8.389;-0.714;4.507;-6.701;-4.91;-0.14;0.946;390.0;10.5;-40.6;-2.3;194.4;5.4;-32.3;0.0;61.28;39.4691;-0.34089;0.2;NaN;0.0;12.2;37.4;3 / 29;26259;2021-10-27 16:53:45:162
2.048;5.108;12.557;3.543;-1.202;9.064;-0.905;4.185;-8.502;-4.197;0.123;0.748;390.0;9.1;-40.8;-4.3;193.5;2.9;-24.7;0.0;61.28;39.4691;-0.34089;0.2;NaN;0.0;12.2;37.4;3 / 29;26309;2021-10-27 16:53:45:212
0.617;5.4;4.339;7.365;-0.225;6.469;-0.391;4.393;-1.746;-2.925;0.298;0.534;390.0;7.7;-41.2;-3.8;192.2;3.4;-35.2;0.0;61.28;39.4691;-0.34089;0.2;NaN;0.0;12.2;37.4;3 / 29;26359;2021-10-27 16:53:45:262
0.689;5.294;6.168;5.957;-1.235;7.69;-0.343;2.704;-0.369;-2.925;0.298;0.534;390.0;6.9;-41.8;-2.3;189.3;2.3;-52.3;0.0;61.28;39.4691;-0.34089;0.2;NaN;0.0;12.2;37.4;3 / 29;26409;2021-10-27 16:53:45:312
1.73;4.514;7.145;4.515;-2.011;8.471;-1.719;3.248;-0.909;-2.925;0.298;0.534;390.0;5.4;-42.1;-1.7;187.4;11.8;-28.1;0.0;61.28;39.4691;-0.34089;0.2;NaN;0.0;12.2;37.4;3 / 29;26459;2021-10-27 16:53:45:362
2.362;4.758;9.088;4.324;-2.136;8.543;-1.085;1.473;-4.278;-2.925;0.298;0.534;1319.0;3.6;-42.1;-2.8;186.8;12.6;-26.8;0.0;61.28;39.4691;-0.34089;0.2;NaN;0.0;12.2;37.4;3 / 29;26508;2021-10-27 16:53:45:411
1.445;3.061;10.52;2.849;-1.159;9.313;-0.305;3.851;-1.432;-1.163;-0.133;0.646;1319.0;2.2;-41.1;-7.1;184.8;6.4;-19.5;0.0;37.12;39.4691;-0.34089;0.2;NaN;0.0;12.2;37.4;3 / 29;26559;2021-10-27 16:53:45:462
2.893;4.514;9.682;4.041;-2.528;8.571;-1.731;1.411;-3.161;-1.406;0.06;0.836;1319.0;1.0;-39.9;-10.1;186.0;7.0;-15.8;0.0;37.12;39.4691;-0.34089;0.2;NaN;0.0;12.2;37.4;3 / 29;26609;2021-10-27 16:53:45:512
2.154;4.052;8.035;4.338;-2.768;8.346;-1.46;1.615;0.127;-1.048;-0.063;0.664;1319.0;0.5;-38.9;-12.8;188.4;16.4;-27.5;0.0;37.12;39.4691;-0.34089;0.2;NaN;0.0;12.2;37.4;3 / 29;26659;2021-10-27 16:53:45:562
2.829;4.483;8.911;4.257;-2.629;8.432;-1.464;0.858;-0.008;-0.804;-0.214;0.46;1319.0;0.4;-38.8;-13.3;188.2;16.3;-26.9;5.0;37.12;39.4691;-0.34089;0.2;NaN;0.0;12.2;37.4;3 / 29;26709;2021-10-27 16:53:45:612
2.92;5.287;7.93;4.879;-2.792;8.035;-1.084;-0.445;0.465;-0.228;-0.539;0.113;1319.0;0.1;-39.3;-12.1;189.3;13.8;-30.8;5.0;37.12;39.4691;-0.34089;0.2;NaN;0.0;12.2;37.4;3 / 29;26759;2021-10-27 16:53:45:662
3.13;4.409;4.667;4.784;-3.304;7.896;-0.941;0.303;-0.242;-0.161;-0.418;0.116;1319.0;0.4;-39.8;-10.7;187.9;16.5;-31.3;5.0;37.12;39.4691;-0.34089;0.2;NaN;0.0;12.2;37.4;3 / 29;26809;2021-10-27 16:53:45:712
1.469;4.966;8.212;5.133;-1.513;8.217;0.637;-0.259;-0.084;-0.082;-0.237;0.128;2037.0;0.7;-40.6;-9.5;187.6;9.4;-27.9;5.0;43.65;39.4691;-0.34089;0.2;NaN;0.0;12.2;37.4;3 / 29;26859;2021-10-27 16:53:45:762
1.558;4.181;8.198;4.683;-1.551;8.475;0.848;0.242;1.431;0.002;-0.113;0.128;2037.0;1.6;-40.9;-9.1;189.3;10.3;-35.0;5.0;43.65;39.4691;-0.34089;0.2;NaN;0.0;12.2;37.4;3 / 29;26908;2021-10-27 16:53:45:811