sep=;
ACCELEROMETER X (m/s²);ACCELEROMETER Y (m/s²);ACCELEROMETER Z (m/s²);GRAVITY X (m/s²);GRAVITY Y (m/s²);GRAVITY Z (m/s²);LINEAR ACCELERATION X (m/s²);LINEAR ACCELERATION Y (m/s²);LINEAR ACCELERATION Z (m/s²);GYROSCOPE X (rad/s);GYROSCOPE Y (rad/s);GYROSCOPE Z (rad/s);LIGHT (lux);MAGNETIC FIELD X (μT);MAGNETIC FIELD Y (μT);MAGNETIC FIELD Z (μT);ORIENTATION Z (azimuth °);ORIENTATION X (pitch °);ORIENTATION Y (roll °);PROXIMITY (m);SOUND LEVEL (dB);LOCATION Latitude : ;LOCATION Longitude : ;LOCATION Altitude ( m);LOCATION Altitude-google ( m);LOCATION Speed ( Kmh);LOCATION Accuracy ( m);LOCATION ORIENTATION (°);Satellites in range;Time since start in ms ;YYYY-MO-DD HH-MI-SS_SSS
-2.104;8.533;4.696;8.375;2.136;4.63;-0.201;0.238;-0.06;-0.037;-0.06;-0.017;1048.0;-19.3;-36.3;4.8;158.3;-10.7;-63.4;5.0;34.72;39.46895;-0.34107;68.8;NaN;;14.116;;0 / 28;15;2021-10-27 16:52:37:218
-2.214;8.183;3.877;8.59;2.298;4.137;0.078;0.596;0.916;-0.075;-0.096;-0.039;1048.0;-19.4;-36.6;5.2;157.4;-13.8;-62.8;5.0;33.23;39.46895;-0.34107;68.8;NaN;;14.116;;0 / 28;65;2021-10-27 16:52:37:268
-2.475;8.131;7.049;7.341;1.935;6.211;0.799;0.536;-2.382;-0.065;-0.09;-0.041;1048.0;-19.5;-36.7;5.9;153.8;-11.4;-49.8;5.0;33.23;39.46895;-0.34107;68.8;NaN;;14.116;;0 / 28;115;2021-10-27 16:52:37:318
-2.735;8.073;1.802;8.059;4.669;3.074;-1.223;0.017;-0.053;-0.176;-0.159;-0.159;1048.0;-19.2;-36.0;7.1;149.5;-25.7;-58.6;5.0;33.23;39.46895;-0.34107;68.8;NaN;;14.116;;0 / 28;165;2021-10-27 16:52:37:368
0.476;5.67;0.876;9.586;1.336;1.585;-6.722;0.157;5.189;0.526;-0.158;0.422;1032.0;-19.1;-35.2;9.2;170.5;29.4;-96.3;5.0;33.23;39.46895;-0.34107;68.8;NaN;;14.116;;0 / 28;214;2021-10-27 16:52:37:417
-1.096;3.753;-0.914;7.901;3.108;-4.908;-0.718;5.045;3.586;0.92;0.128;0.487;1032.0;-19.4;-34.6;10.8;143.8;-40.0;-87.3;5.0;33.23;39.46895;-0.34107;68.8;NaN;;14.116;;0 / 28;264;2021-10-27 16:52:37:467
3.343;6.563;4.155;7.776;-4.262;4.195;-5.439;2.148;-2.501;2.125;2.489;0.269;1032.0;-19.7;-33.4;13.7;146.1;11.3;-55.5;5.0;33.23;39.46895;-0.34107;68.8;NaN;;14.116;;0 / 28;314;2021-10-27 16:52:37:517
-2.618;9.32;-5.151;8.614;2.897;-3.682;-2.518;2.801;-0.068;1.556;1.625;-0.603;1032.0;-20.0;-32.3;15.2;169.7;-9.8;-115.4;0.0;54.19;39.46895;-0.34107;68.8;NaN;;14.116;;0 / 28;365;2021-10-27 16:52:37:568
4.078;10.797;3.169;8.313;-4.348;2.859;-8.322;4.29;-1.894;1.706;1.447;0.286;1032.0;-21.2;-30.5;17.2;150.0;40.0;-80.2;0.0;54.19;39.46895;-0.34107;68.8;NaN;;14.116;;0 / 28;415;2021-10-27 16:52:37:618
-3.671;24.867;3.262;9.649;-1.183;-1.317;2.427;-16.713;-3.105;0.245;-1.588;1.199;1032.0;-22.4;-29.1;17.5;152.2;10.1;-88.4;0.0;54.19;39.46895;-0.34107;68.8;NaN;;14.116;;0 / 28;465;2021-10-27 16:52:37:668
2.616;11.384;-1.168;9.462;-2.399;-0.948;-6.39;-0.763;2.593;0.512;-1.188;1.354;1032.0;-24.5;-27.1;17.2;156.2;14.2;-95.7;0.0;54.19;39.46895;-0.34107;68.8;NaN;;14.116;;0 / 28;515;2021-10-27 16:52:37:718
-2.223;5.634;-0.074;9.098;2.825;2.322;2.2;4.253;2.003;0.456;-0.517;0.796;588.0;-25.4;-26.2;17.0;148.3;0.6;-91.7;0.0;54.19;39.46895;-0.34107;68.8;NaN;;14.116;;0 / 28;565;2021-10-27 16:52:37:768
0.691;9.72;-1.73;9.716;-0.733;-1.125;-1.115;0.099;1.749;0.467;-0.339;0.991;588.0;-25.8;-26.2;17.2;145.0;3.4;-85.0;0.0;54.19;39.46895;-0.34107;68.8;NaN;;14.116;;0 / 28;615;2021-10-27 16:52:37:818
0.612;9.172;1.321;9.701;-0.536;1.322;-0.632;0.69;-0.726;0.065;-0.222;0.321;588.0;-25.7;-26.5;16.7;151.2;3.1;-93.0;0.0;54.19;39.46895;-0.34107;68.8;NaN;;14.116;;0 / 28;665;2021-10-27 16:52:37:868
0.837;10.043;0.476;9.768;-0.848;0.038;-1.004;-0.111;-1.357;-0.194;-0.262;0.118;588.0;-25.5;-26.9;16.3;151.1;5.0;-89.8;0.0;68.09;39.46895;-0.34107;68.8;NaN;;14.116;;0 / 28;715;2021-10-27 16:52:37:918
0.854;9.342;0.911;9.725;-0.857;0.915;-0.788;0.381;-0.879;-0.371;-0.484;0.35;588.0;-25.8;-27.0;15.5;150.2;4.9;-88.5;0.0;68.09;39.46895;-0.34107;68.8;NaN;;14.116;;0 / 28;764;2021-10-27 16:52:37:967
0.691;9.411;0.873;9.74;-0.704;0.886;-0.594;0.393;-0.795;-0.371;-0.484;0.35;588.0;-26.1;-27.1;15.0;148.7;4.8;-84.1;0.0;68.09;39.46895;-0.34107;68.8;NaN;;14.116;;0 / 28;815;2021-10-27 16:52:38:018
0.181;9.663;0.785;9.773;-0.163;0.781;0.156;0.1;-0.492;-0.321;-0.229;0.254;588.0;-26.0;-27.3;15.0;148.2;3.0;-84.3;0.0;68.09;39.46895;-0.34107;68.8;NaN;;14.116;;0 / 28;865;2021-10-27 16:52:38:068
0.131;9.49;0.789;9.768;-0.014;0.886;0.34;0.284;-0.363;-0.267;-0.115;0.169;231.0;-26.0;-27.3;15.0;147.4;0.1;-84.8;0.0;68.09;39.46895;-0.34107;68.8;NaN;;14.116;;0 / 28;914;2021-10-27 16:52:38:117
0.086;9.557;1.096;9.749;0.029;1.058;0.506;0.401;-0.705;-0.214;0.035;-0.044;231.0;-26.2;-27.4;14.9;146.7;-0.2;-83.8;0.0;68.09;39.46895;-0.34107;68.8;NaN;;14.116;;0 / 28;964;2021-10-27 16:52:38:167
0.327;9.493;1.354;9.711;-0.278;1.331;0.281;0.356;-0.627;-0.185;0.094;-0.147;231.0;-26.1;-27.7;14.8;147.1;-0.6;-83.3;0.0;54.93;39.46895;-0.34107;68.8;NaN;;14.116;;0 / 28;1014;2021-10-27 16:52:38:217
0.356;9.632;1.122;9.744;-0.345;1.063;-0.054;0.188;-0.523;-0.214;0.028;-0.111;231.0;-26.3;-27.9;14.8;147.2;1.6;-81.9;0.0;54.93;39.46895;-0.34107;68.8;NaN;;14.116;;0 / 28;1064;2021-10-27 16:52:38:267
0.078;9.512;1.014;9.754;-0.057;1.025;0.022;0.277;-0.195;-0.189;-0.005;-0.067;231.0;-26.3;-27.9;15.0;147.9;0.3;-84.0;0.0;54.93;39.46895;-0.34107;68.8;NaN;;14.116;;0 / 28;1115;2021-10-27 16:52:38:318
0.055;9.521;0.842;9.764;-0.043;0.929;0.23;0.286;-0.152;-0.143;-0.01;-0.035;231.0;-26.0;-27.7;15.3;148.2;0.3;-84.6;0.0;54.93;39.46895;-0.34107;68.8;NaN;;14.116;;0 / 28;1165;2021-10-27 16:52:38:368
0.146;9.45;1.074;9.754;-0.057;0.996;0.144;0.238;0.083;-0.077;-0.013;-0.036;327.0;-25.7;-27.9;16.0;147.3;0.6;-85.2;0.0;54.93;39.46895;-0.34107;68.8;NaN;;14.116;;0 / 28;1215;2021-10-27 16:52:38:418
0.335;9.462;0.567;9.783;-0.321;0.603;-0.122;0.318;0.406;-0.001;-0.02;-0.036;327.0;-25.8;-28.3;16.1;146.6;1.1;-83.7;0.0;54.93;39.46895;-0.34107;68.8;NaN;;14.116;;0 / 28;1264;2021-10-27 16:52:38:467
0.284;9.564;0.701;9.773;-0.335;0.713;-0.132;0.239;0.251;0.06;-0.038;-0.027;327.0;-25.9;-28.3;16.1;148.2;2.0;-85.8;0.0;42.63;39.46895;-0.34107;68.8;NaN;;14.116;;0 / 28;1315;2021-10-27 16:52:38:518
0.371;9.521;0.459;9.792;-0.393;0.364;-0.228;0.243;0.397;0.085;-0.054;0.012;327.0;-26.3;-28.0;16.0;149.2;2.5;-87.0;0.0;42.63;39.46895;-0.34107;68.8;NaN;;14.116;;0 / 28;1365;2021-10-27 16:52:38:568
0.404;9.397;0.509;9.783;-0.412;0.541;-0.127;0.383;0.324;0.085;-0.054;0.012;327.0;-26.4;-27.4;16.4;149.5;2.5;-87.5;0.0;42.63;39.46895;-0.34107;68.8;NaN;;14.116;;0 / 28;1415;2021-10-27 16:52:38:618
0.622;9.481;0.536;9.773;-0.632;0.517;-0.38;0.293;0.304;0.085;-0.054;0.012;327.0;-26.7;-27.8;16.2;149.1;2.8;-86.8;0.0;42.63;39.46895;-0.34107;68.8;NaN;;14.116;;0 / 28;1464;2021-10-27 16:52:38:667
0.524;9.538;0.356;9.783;-0.57;0.335;-0.338;0.2;0.402;0.085;-0.054;0.012;327.0;-26.3;-27.4;16.1;149.3;3.3;-88.0;0.0;42.63;39.46895;-0.34107;68.8;NaN;;14.116;;0 / 28;1515;2021-10-27 16:52:38:718
0.521;9.385;0.476;9.768;-0.675;0.536;-0.101;0.408;0.135;0.12;0.02;0.097;303.0;-26.2;-27.5;15.8;149.5;2.7;-87.4;0.0;42.63;39.46895;-0.34107;68.8;NaN;;14.116;;0 / 28;1565;2021-10-27 16:52:38:768
0.612;9.593;0.311;9.783;-0.656;0.306;-0.039;0.368;0.311;0.104;0.022;0.087;303.0;-26.5;-27.2;16.1;150.2;4.1;-87.7;0.0;42.63;39.46895;-0.34107;68.8;NaN;;14.116;;0 / 28;1615;2021-10-27 16:52:38:818
0.505;9.404;0.43;9.787;-0.493;0.397;-0.082;0.383;0.182;0.082;0.032;0.065;303.0;-26.8;-27.4;16.2;147.6;3.0;-85.7;0.0;35.04;39.46895;-0.34107;68.8;NaN;;14.116;;0 / 28;1665;2021-10-27 16:52:38:868
0.538;9.423;0.502;9.778;-0.565;0.536;-0.077;0.357;0.077;0.064;0.036;0.053;303.0;-26.7;-27.2;16.1;148.5;3.3;-86.9;0.0;35.04;39.46895;-0.34107;68.8;NaN;;14.116;;0 / 28;1715;2021-10-27 16:52:38:918
0.804;9.442;0.406;9.768;-0.814;0.335;-0.326;0.316;0.126;0.024;0.021;0.041;303.0;-26.5;-26.8;15.5;149.5;4.7;-87.6;0.0;35.04;39.46895;-0.34107;68.8;NaN;;14.116;;0 / 28;1765;2021-10-27 16:52:38:968
0.782;9.43;0.574;9.764;-0.761;0.536;-0.146;0.261;0.008;0.026;0.019;0.048;303.0;-26.6;-26.6;15.5;150.2;3.8;-87.0;0.0;35.04;39.46895;-0.34107;68.8;NaN;;14.116;;0 / 28;1815;2021-10-27 16:52:39:018
0.66;9.502;0.375;9.778;-0.632;0.464;-0.11;0.341;0.133;0.018;0.001;0.087;303.0;-26.4;-26.8;15.3;150.9;4.7;-87.5;0.0;35.04;39.46895;-0.34107;68.8;NaN;;14.116;;0 / 28;1865;2021-10-27 16:52:39:068
0.689;9.576;0.162;9.778;-0.776;0.139;-0.039;0.298;0.073;0.016;0.041;0.074;305.0;-26.3;-27.4;15.9;150.5;4.5;-89.2;0.0;35.04;39.46895;-0.34107;68.8;NaN;;14.116;;0 / 28;1915;2021-10-27 16:52:39:118
0.552;9.213;0.641;9.768;-0.594;0.622;0.047;0.46;-0.25;0.017;0.017;0.047;305.0;-26.0;-27.2;16.0;147.6;3.3;-85.5;0.0;40.69;39.46895;-0.34107;68.8;NaN;;14.116;;0 / 28;1964;2021-10-27 16:52:39:167
0.562;9.416;0.162;9.787;-0.579;0.144;0.042;0.46;0.14;0.017;0.019;-0.005;305.0;-26.7;-27.1;16.4;149.0;3.5;-87.5;0.0;40.69;39.46895;-0.34107;68.8;NaN;;14.116;;0 / 28;2015;2021-10-27 16:52:39:218
0.813;9.462;0.6;9.754;-0.905;0.517;-0.243;0.311;-0.06;0.017;0.019;-0.005;305.0;-26.3;-26.4;16.4;147.5;3.8;-87.3;0.0;40.69;39.46895;-0.34107;68.8;NaN;;14.116;;0 / 28;2065;2021-10-27 16:52:39:268
0.911;9.605;0.409;9.759;-0.915;0.306;-0.251;0.174;0.058;0.017;0.019;-0.005;305.0;-26.3;-26.4;16.5;147.8;5.4;-88.2;0.0;40.69;39.46895;-0.34107;68.8;NaN;;14.116;;0 / 28;2115;2021-10-27 16:52:39:318
0.722;9.325;0.576;9.764;-0.728;0.57;-0.133;0.391;-0.151;0.017;0.019;-0.005;305.0;-26.0;-26.6;16.4;148.8;4.6;-86.6;0.0;40.69;39.46895;-0.34107;68.8;NaN;;14.116;;0 / 28;2164;2021-10-27 16:52:39:367
0.619;9.462;0.473;9.773;-0.661;0.464;0.087;0.362;0.024;-0.002;-0.083;0.07;333.0;-26.1;-26.8;15.6;148.9;3.5;-87.3;0.0;40.69;39.46895;-0.34107;68.8;NaN;;14.116;;0 / 28;2215;2021-10-27 16:52:39:418
0.878;9.328;0.495;9.754;-0.857;0.512;-0.114;0.387;-0.059;-0.003;-0.056;0.041;333.0;-25.8;-26.7;15.8;148.8;4.2;-86.8;0.0;40.69;39.46895;-0.34107;68.8;NaN;;14.116;;0 / 28;2265;2021-10-27 16:52:39:468
1.235;9.442;0.397;9.711;-1.235;0.555;-0.563;0.536;0.365;-0.004;-0.032;0.034;333.0;-26.0;-26.8;16.1;149.8;7.2;-86.7;0.0;42.17;39.46895;-0.34107;68.8;NaN;;14.116;;0 / 28;2315;2021-10-27 16:52:39:518
0.55;9.404;-0.009;9.792;-0.56;0.0;0.138;0.303;0.466;-0.017;-0.031;0.032;333.0;-26.0;-26.7;16.4;150.0;4.1;-88.6;0.0;42.17;39.46895;-0.34107;68.8;NaN;;14.116;;0 / 28;2365;2021-10-27 16:52:39:568
0.955;9.433;0.663;9.73;-0.982;0.718;-0.088;0.342;-0.102;-0.012;-0.051;0.054;333.0;-26.1;-26.7;16.7;147.5;5.0;-86.5;0.0;42.17;39.46895;-0.34107;68.8;NaN;;14.116;;0 / 28;2414;2021-10-27 16:52:39:617
0.799;9.402;0.667;9.749;-0.809;0.666;-0.04;0.351;-0.257;-0.033;-0.107;0.07;333.0;-26.0;-26.7;16.7;146.9;6.5;-84.8;0.0;42.17;39.46895;-0.34107;68.8;NaN;;14.116;;0 / 28;2464;2021-10-27 16:52:39:667
0.801;9.536;0.557;9.754;-0.833;0.57;0.02;0.308;-0.013;-0.041;-0.128;0.037;333.0;-25.6;-26.5;16.8;147.5;4.9;-86.7;0.0;42.17;39.46895;-0.34107;68.8;NaN;;14.116;;0 / 28;2515;2021-10-27 16:52:39:718
0.809;9.404;0.569;9.754;-0.833;0.594;0.001;0.237;-0.089;-0.086;-0.152;0.027;325.0;-25.3;-26.8;16.8;147.4;5.2;-86.3;0.0;42.17;39.46895;-0.34107;68.8;NaN;;14.116;;0 / 28;2564;2021-10-27 16:52:39:767
0.722;9.433;0.545;9.764;-0.752;0.551;0.12;0.371;0.003;-0.064;-0.137;0.013;325.0;-25.5;-26.5;16.6;147.4;4.4;-86.7;0.0;49.32;39.46895;-0.34107;68.8;NaN;;14.116;;0 / 28;2615;2021-10-27 16:52:39:818
0.682;9.536;0.416;9.773;-0.685;0.45;0.161;0.179;0.131;-0.037;-0.091;-0.014;325.0;-25.9;-26.5;16.7;147.5;4.4;-87.0;0.0;49.32;39.46895;-0.34107;68.8;NaN;;14.116;;0 / 28;2665;2021-10-27 16:52:39:868
0.777;9.478;0.598;9.754;-0.814;0.603;0.036;0.262;-0.013;-0.028;-0.07;-0.023;325.0;-26.3;-26.2;16.7;146.2;4.6;-86.2;0.0;49.32;39.46895;-0.34107;68.8;NaN;;14.116;;0 / 28;2715;2021-10-27 16:52:39:918
0.744;9.442;0.473;9.764;-0.79;0.479;0.051;0.304;0.104;-0.028;-0.07;-0.023;325.0;-26.4;-26.4;16.6;146.8;4.9;-86.9;0.0;49.32;39.46895;-0.34107;68.8;NaN;;14.116;;0 / 28;2764;2021-10-27 16:52:39:967
0.789;9.454;0.593;9.759;-0.79;0.594;0.082;0.346;0.013;0.026;0.031;-0.025;325.0;-26.3;-26.8;16.6;147.6;4.2;-87.1;0.0;49.32;39.46895;-0.34107;68.8;NaN;;14.116;;0 / 28;2815;2021-10-27 16:52:40:018
0.792;9.521;0.519;9.759;-0.781;0.57;0.044;0.279;-0.006;0.026;0.031;-0.025;325.0;-26.1;-27.1;16.5;148.9;4.8;-86.6;0.0;49.32;39.46895;-0.34107;68.8;NaN;;14.116;;0 / 28;2864;2021-10-27 16:52:40:067
0.777;9.462;0.584;9.754;-0.814;0.603;0.012;0.28;0.033;0.008;0.046;-0.007;322.0;-26.3;-26.8;16.7;147.3;4.8;-86.5;0.0;36.58;39.46895;-0.34107;68.8;NaN;;14.116;;0 / 28;2915;2021-10-27 16:52:40:118
0.835;9.447;0.569;9.759;-0.79;0.579;0.012;0.334;-0.035;-0.005;0.019;0.005;322.0;-26.4;-26.8;16.5;147.3;4.9;-86.3;0.0;36.58;39.46895;-0.34107;68.8;NaN;;14.116;;0 / 28;2965;2021-10-27 16:52:40:168
0.703;9.517;0.54;9.764;-0.728;0.575;0.081;0.225;0.009;-0.006;0.02;0.002;322.0;-26.6;-26.7;16.4;148.7;4.2;-86.7;0.0;36.58;39.46895;-0.34107;68.8;NaN;;14.116;;0 / 28;3015;2021-10-27 16:52:40:218
0.703;9.481;0.531;9.768;-0.718;0.536;0.026;0.279;0.042;-0.007;0.024;0.001;322.0;-26.3;-26.9;16.2;148.9;4.8;-86.7;0.0;36.58;39.46895;-0.34107;68.8;NaN;;14.116;;0 / 28;3065;2021-10-27 16:52:40:268
0.708;9.438;0.545;9.768;-0.704;0.532;0.092;0.279;0.085;0.0;0.042;-0.003;322.0;-26.3;-27.0;16.4;148.8;4.1;-86.9;0.0;36.58;39.46895;-0.34107;68.8;NaN;;14.116;;0 / 28;3114;2021-10-27 16:52:40:317
0.765;9.476;0.617;9.754;-0.776;0.632;0.02;0.307;-0.078;0.002;0.032;-0.008;322.0;-26.0;-26.7;17.0;147.2;4.5;-86.3;0.0;36.58;39.46895;-0.34107;68.8;NaN;;14.116;;0 / 28;3164;2021-10-27 16:52:40:367
0.725;9.469;0.505;9.764;-0.757;0.522;0.015;0.253;0.031;0.002;0.011;-0.006;321.0;-25.9;-26.8;16.8;147.4;4.6;-86.7;0.0;36.58;39.46895;-0.34107;68.8;NaN;;14.116;;0 / 28;3214;2021-10-27 16:52:40:417
0.792;9.474;0.557;9.764;-0.785;0.522;-0.001;0.294;-0.01;-0.004;-0.032;-0.005;321.0;-25.5;-27.0;16.7;147.4;4.4;-86.7;0.0;32.31;39.46895;-0.34107;68.8;NaN;;14.116;;0 / 28;3264;2021-10-27 16:52:40:467
0.732;9.512;0.457;9.764;-0.757;0.474;0.026;0.28;0.073;-0.007;-0.068;-0.003;321.0;-25.1;-26.8;16.3;149.1;4.4;-87.2;0.0;32.31;39.46895;-0.34107;68.8;NaN;;14.116;;0 / 28;3315;2021-10-27 16:52:40:518
0.722;9.474;0.445;9.768;-0.718;0.479;0.08;0.307;0.1;-0.007;-0.073;-0.003;321.0;-25.2;-26.2;16.5;146.7;4.4;-87.1;0.0;32.31;39.46895;-0.34107;68.8;NaN;;14.116;;0 / 28;3365;2021-10-27 16:52:40:568
0.737;9.478;0.464;9.768;-0.728;0.464;0.025;0.253;0.123;-0.007;-0.073;-0.003;321.0;-25.6;-25.9;16.3;148.3;4.4;-87.3;0.0;32.31;39.46895;-0.34107;68.8;NaN;;14.116;;0 / 28;3415;2021-10-27 16:52:40:618
0.782;9.495;0.471;9.768;-0.757;0.464;0.036;0.282;0.091;-0.007;-0.073;-0.003;321.0;-25.5;-26.2;16.1;148.1;4.0;-87.2;0.0;32.31;39.46895;-0.34107;68.8;NaN;;14.116;;0 / 28;3465;2021-10-27 16:52:40:668
0.813;9.452;0.461;9.764;-0.833;0.421;0.018;0.31;0.011;0.029;0.02;-0.009;321.0;-25.6;-26.3;16.5;146.8;4.5;-87.3;0.0;32.31;39.46895;-0.34107;68.8;NaN;;14.116;;0 / 28;3515;2021-10-27 16:52:40:718
0.725;9.462;0.406;9.773;-0.718;0.393;0.056;0.311;0.133;0.026;0.035;-0.002;316.0;-25.7;-26.4;16.6;147.2;4.8;-87.6;0.0;32.2;39.46895;-0.34107;68.8;NaN;;14.116;;0 / 28;3565;2021-10-27 16:52:40:768
0.715;9.517;0.45;9.768;-0.771;0.407;0.082;0.325;0.138;0.028;0.04;0.0;316.0;-26.2;-26.6;17.0;147.9;4.4;-87.5;0.0;32.2;39.46895;-0.34107;68.8;NaN;;14.116;;0 / 28;3615;2021-10-27 16:52:40:818
0.753;9.481;0.476;9.764;-0.742;0.517;0.041;0.271;0.038;0.039;0.042;0.002;316.0;-26.4;-26.8;16.9;147.8;4.3;-87.4;0.0;32.2;39.46895;-0.34107;68.8;NaN;;14.116;;0 / 28;3665;2021-10-27 16:52:40:868
0.758;9.483;0.452;9.764;-0.8;0.479;0.013;0.286;-0.042;0.029;0.03;0.0;316.0;-26.9;-26.3;16.8;146.9;4.7;-87.2;0.0;32.2;39.46895;-0.34107;68.8;NaN;;14.116;;0 / 28;3715;2021-10-27 16:52:40:918
0.734;9.495;0.454;9.768;-0.742;0.46;-0.001;0.259;-0.009;0.019;0.045;0.002;316.0;-26.8;-26.3;16.4;148.3;4.4;-87.3;0.0;32.2;39.46895;-0.34107;68.8;NaN;;14.116;;0 / 28;3765;2021-10-27 16:52:40:968
0.773;9.474;0.5;9.759;-0.785;0.532;-0.001;0.273;-0.04;0.004;0.046;0.002;316.0;-26.2;-26.5;16.2;148.0;4.2;-87.0;0.0;32.2;39.46895;-0.34107;68.8;NaN;;14.116;;0 / 28;3815;2021-10-27 16:52:41:018
0.746;9.459;0.402;9.773;-0.733;0.412;-0.001;0.286;0.072;-0.002;0.039;0.002;316.0;-25.8;-26.9;16.1;149.3;4.7;-87.3;0.0;32.2;39.46895;-0.34107;68.8;NaN;;14.116;;0 / 28;3865;2021-10-27 16:52:41:068
0.73;9.481;0.435;9.773;-0.699;0.45;0.04;0.313;0.046;0.004;0.057;0.003;312.0;-25.9;-27.0;16.1;149.1;4.1;-87.4;0.0;32.99;39.46895;-0.34107;68.8;NaN;;14.116;;0 / 28;3915;2021-10-27 16:52:41:118
0.72;9.509;0.45;9.768;-0.728;0.493;0.067;0.245;0.018;0.006;0.033;-0.001;312.0;-26.0;-27.0;16.2;149.3;4.1;-87.6;0.0;32.99;39.46895;-0.34107;68.8;NaN;;14.116;;0 / 28;3965;2021-10-27 16:52:41:168
0.749;9.495;0.421;9.768;-0.757;0.421;0.02;0.273;0.053;0.011;0.026;-0.005;312.0;-26.0;-26.3;16.7;146.8;4.3;-87.4;0.0;32.99;39.46895;-0.34107;68.8;NaN;;14.116;;0 / 28;4015;2021-10-27 16:52:41:218
0.706;9.49;0.382;9.773;-0.699;0.378;0.069;0.26;0.09;0.011;0.014;-0.012;312.0;-25.7;-26.3;16.9;147.0;4.4;-87.5;0.0;32.99;39.46895;-0.34107;68.8;NaN;;14.116;;0 / 28;4065;2021-10-27 16:52:41:268
0.732;9.483;0.476;9.768;-0.747;0.493;0.022;0.302;-0.025;0.011;0.014;-0.012;312.0;-25.7;-26.0;17.3;146.7;4.3;-87.1;0.0;32.99;39.46895;-0.34107;68.8;NaN;;14.116;;0 / 28;4115;2021-10-27 16:52:41:318
0.684;9.481;0.363;9.773;-0.718;0.354;0.033;0.289;0.108;0.004;-0.07;-0.01;312.0;-25.7;-26.2;16.8;147.2;4.4;-87.8;0.0;32.99;39.46895;-0.34107;68.8;NaN;;14.116;;0 / 28;4165;2021-10-27 16:52:41:368
0.775;9.445;0.447;9.768;-0.742;0.464;-0.024;0.316;0.008;0.006;-0.061;-0.008;309.0;-25.8;-26.3;16.7;147.1;4.6;-87.5;0.0;30.53;39.46895;-0.34107;68.8;NaN;;14.116;;0 / 28;4215;2021-10-27 16:52:41:418
0.708;9.485;0.373;9.773;-0.747;0.364;0.057;0.289;0.085;0.005;-0.049;-0.004;309.0;-25.7;-26.6;16.2;147.0;4.5;-87.4;0.0;30.53;39.46895;-0.34107;68.8;NaN;;14.116;;0 / 28;4265;2021-10-27 16:52:41:468
0.73;9.5;0.406;9.773;-0.742;0.393;0.015;0.29;0.051;0.01;-0.033;-0.003;309.0;-25.6;-26.5;16.1;149.3;4.3;-87.5;0.0;30.53;39.46895;-0.34107;68.8;NaN;;14.116;;0 / 28;4315;2021-10-27 16:52:41:518
0.737;9.469;0.409;9.768;-0.747;0.421;0.015;0.317;0.019;0.013;0.033;0.002;309.0;-25.6;-26.4;16.4;148.7;4.5;-87.8;0.0;30.53;39.46895;-0.34107;68.8;NaN;;14.116;;0 / 28;4364;2021-10-27 16:52:41:567
0.758;9.529;0.404;9.768;-0.785;0.421;-0.025;0.276;0.002;0.013;0.036;0.004;309.0;-25.5;-26.2;16.5;148.5;4.6;-87.4;0.0;30.53;39.46895;-0.34107;68.8;NaN;;14.116;;0 / 28;4415;2021-10-27 16:52:41:618
0.732;9.452;0.416;9.768;-0.742;0.407;0.019;0.331;-0.003;0.007;0.013;0.006;309.0;-25.8;-26.5;16.7;148.3;4.2;-87.4;0.0;30.53;39.46895;-0.34107;68.8;NaN;;14.116;;0 / 28;4465;2021-10-27 16:52:41:668
0.77;9.507;0.423;9.764;-0.824;0.436;0.008;0.303;-0.018;-0.001;-0.004;0.006;309.0;-26.3;-26.5;16.8;146.9;4.7;-87.2;0.0;31.24;39.46895;-0.34107;68.8;NaN;;14.116;;0 / 28;4515;2021-10-27 16:52:41:718
0.665;9.519;0.428;9.773;-0.704;0.421;0.079;0.276;0.012;-0.007;-0.023;0.004;307.0;-26.6;-26.7;16.7;147.8;4.1;-87.5;0.0;31.24;39.46895;-0.34107;68.8;NaN;;14.116;;0 / 28;4564;2021-10-27 16:52:41:767
0.686;9.495;0.418;9.768;-0.728;0.421;0.013;0.316;-0.012;-0.008;-0.004;0.003;307.0;-26.3;-26.5;16.4;147.8;4.5;-87.4;0.0;31.24;39.46895;-0.34107;68.8;NaN;;14.116;;0 / 28;4614;2021-10-27 16:52:41:817
0.677;9.526;0.473;9.768;-0.699;0.46;0.094;0.235;-0.008;-0.005;0.026;0.001;307.0;-25.7;-26.4;16.0;148.3;4.2;-87.4;0.0;31.24;39.46895;-0.34107;68.8;NaN;;14.116;;0 / 28;4665;2021-10-27 16:52:41:868
0.725;9.462;0.454;9.773;-0.718;0.407;0.007;0.317;0.021;-0.005;0.026;0.001;307.0;-25.2;-26.4;16.3;148.4;4.2;-87.6;0.0;31.24;39.46895;-0.34107;68.8;NaN;;14.116;;0 / 28;4715;2021-10-27 16:52:41:918
0.749;9.476;0.447;9.764;-0.785;0.445;0.016;0.317;-0.017;-0.003;0.029;-0.006;307.0;-25.4;-26.2;16.4;148.3;4.5;-87.2;0.0;31.24;39.46895;-0.34107;68.8;NaN;;14.116;;0 / 28;4764;2021-10-27 16:52:41:967
0.758;9.474;0.426;9.768;-0.742;0.445;-0.027;0.276;0.026;-0.007;-0.016;-0.005;307.0;-25.4;-26.5;16.6;146.9;4.4;-87.4;0.0;31.24;39.46895;-0.34107;68.8;NaN;;14.116;;0 / 28;4815;2021-10-27 16:52:42:018
0.756;9.481;0.495;9.764;-0.771;0.493;0.019;0.289;-0.038;-0.01;-0.038;0.012;307.0;-26.1;-26.8;16.5;149.2;4.3;-87.4;0.0;33.15;39.46895;-0.34107;68.8;NaN;;14.116;;0 / 28;4865;2021-10-27 16:52:42:068
0.742;9.507;0.433;9.768;-0.761;0.464;0.01;0.302;-0.021;-0.011;-0.032;0.011;307.0;-26.0;-26.8;16.5;147.8;4.5;-87.3;0.0;33.15;39.46895;-0.34107;68.8;NaN;;14.116;;0 / 28;4915;2021-10-27 16:52:42:118
0.73;9.507;0.433;9.768;-0.757;0.421;0.042;0.274;0.023;-0.009;-0.015;0.008;307.0;-26.2;-26.2;16.7;147.0;4.4;-87.5;0.0;33.15;39.46895;-0.34107;68.8;NaN;;14.116;;0 / 28;4964;2021-10-27 16:52:42:167
0.703;9.442;0.426;9.773;-0.704;0.407;0.018;0.274;0.028;-0.009;0.002;0.007;307.0;-25.9;-26.1;16.6;146.9;4.4;-87.4;0.0;33.15;39.46895;-0.34107;68.8;NaN;;14.116;;0 / 28;5015;2021-10-27 16:52:42:218
0.78;9.474;0.457;9.768;-0.757;0.464;0.032;0.328;-0.01;-0.002;0.018;0.0;307.0;-26.3;-26.2;16.7;146.9;4.4;-87.4;0.0;33.15;39.46895;-0.34107;68.8;NaN;;14.116;;0 / 28;5064;2021-10-27 16:52:42:267
0.725;9.512;0.414;9.768;-0.728;0.464;0.056;0.274;0.017;0.003;0.026;-0.005;307.0;-26.3;-26.2;16.3;148.4;4.4;-87.4;0.0;33.15;39.46895;-0.34107;68.8;NaN;;14.116;;0 / 28;5115;2021-10-27 16:52:42:318
0.746;9.452;0.435;9.768;-0.761;0.436;0.026;0.315;0.029;0.006;0.027;-0.007;307.0;-26.0;-26.4;16.5;146.9;4.6;-87.3;0.0;31.29;39.46895;-0.34107;68.8;NaN;;14.116;;0 / 28;5165;2021-10-27 16:52:42:368
0.72;9.507;0.49;9.764;-0.785;0.479;0.036;0.275;-0.013;0.004;0.023;-0.004;305.0;-25.7;-26.2;16.2;147.0;4.5;-87.5;0.0;31.29;39.46895;-0.34107;68.8;NaN;;14.116;;0 / 28;5215;2021-10-27 16:52:42:418
0.713;9.488;0.418;9.768;-0.747;0.45;0.048;0.316;0.041;0.003;0.024;-0.002;305.0;-25.7;-26.2;16.4;148.4;4.5;-87.4;0.0;31.29;39.46895;-0.34107;68.8;NaN;;14.116;;0 / 28;5264;2021-10-27 16:52:42:467
0.761;9.509;0.435;9.764;-0.8;0.436;-0.035;0.289;0.026;0.002;0.015;-0.002;305.0;-26.0;-26.2;16.4;148.2;4.1;-87.3;0.0;31.29;39.46895;-0.34107;68.8;NaN;;14.116;;0 / 28;5314;2021-10-27 16:52:42:517
0.739;9.485;0.447;9.764;-0.771;0.464;-0.007;0.289;-0.001;0.002;0.015;-0.002;305.0;-26.2;-26.3;16.4;148.6;4.6;-87.6;0.0;31.29;39.46895;-0.34107;68.8;NaN;;14.116;;0 / 28;5365;2021-10-27 16:52:42:568
0.727;9.481;0.39;9.768;-0.747;0.421;0.023;0.302;0.039;0.002;0.015;-0.002;305.0;-26.4;-26.8;16.4;149.3;4.5;-87.4;0.0;31.29;39.46895;-0.34107;68.8;NaN;;14.116;;0 / 28;5415;2021-10-27 16:52:42:618
0.691;9.481;0.452;9.773;-0.704;0.421;0.039;0.329;0.052;0.003;0.007;0.009;305.0;-26.5;-26.6;16.4;149.4;4.2;-87.7;0.0;31.29;39.46895;-0.34107;68.8;NaN;;14.116;;0 / 28;5464;2021-10-27 16:52:42:667
0.773;9.529;0.438;9.768;-0.757;0.464;-0.012;0.315;-0.004;0.004;0.024;0.006;305.0;-26.2;-26.9;16.2;149.3;4.7;-87.3;0.0;34.33;39.46895;-0.34107;68.8;NaN;;14.116;;0 / 28;5515;2021-10-27 16:52:42:718
0.77;9.512;0.454;9.764;-0.757;0.474;0.044;0.247;0.05;0.004;0.023;0.003;305.0;-26.1;-26.5;16.4;149.3;4.3;-87.5;0.0;34.33;39.46895;-0.34107;68.8;NaN;;14.116;;0 / 28;5564;2021-10-27 16:52:42:767
0.696;9.462;0.445;9.768;-0.718;0.464;0.017;0.288;-0.019;0.002;0.018;0.0;305.0;-25.7;-27.0;16.1;149.1;4.5;-87.1;0.0;34.33;39.46895;-0.34107;68.8;NaN;;14.116;;0 / 28;5615;2021-10-27 16:52:42:818
0.739;9.505;0.49;9.768;-0.742;0.474;-0.011;0.301;-0.004;-0.005;-0.006;0.0;305.0;-25.8;-27.1;16.4;149.2;4.2;-87.4;0.0;34.33;39.46895;-0.34107;68.8;NaN;;14.116;;0 / 28;5665;2021-10-27 16:52:42:868
0.751;9.505;0.461;9.764;-0.785;0.474;0.044;0.288;0.026;-0.009;-0.025;-0.001;305.0;-26.3;-27.2;17.0;147.8;4.6;-87.2;0.0;34.33;39.46895;-0.34107;68.8;NaN;;14.116;;0 / 28;5715;2021-10-27 16:52:42:918
0.777;9.462;0.512;9.764;-0.79;0.479;-0.024;0.315;-0.036;-0.013;-0.03;-0.001;305.0;-26.6;-27.2;17.0;147.7;4.7;-87.0;0.0;34.33;39.46895;-0.34107;68.8;NaN;;14.116;;0 / 28;5765;2021-10-27 16:52:42:968
0.77;9.454;0.473;9.764;-0.79;0.479;0.003;0.287;-0.003;-0.019;-0.059;0.0;305.0;-26.7;-26.9;16.5;147.6;4.7;-86.9;0.0;30.6;39.46895;-0.34107;68.8;NaN;;14.116;;0 / 28;5815;2021-10-27 16:52:43:018
0.72;9.497;0.495;9.768;-0.742;0.488;-0.008;0.287;-0.009;-0.015;-0.029;0.004;305.0;-26.6;-27.1;16.2;147.7;4.4;-87.3;0.0;30.6;39.46895;-0.34107;68.8;NaN;;14.116;;0 / 28;5864;2021-10-27 16:52:43:067
0.758;9.512;0.481;9.764;-0.771;0.488;0.008;0.273;0.023;-0.011;0.0;0.008;305.0;-26.5;-27.1;15.9;149.1;4.5;-87.1;0.0;30.6;39.46895;-0.34107;68.8;NaN;;14.116;;0 / 28;5915;2021-10-27 16:52:43:118
0.794;9.481;0.502;9.764;-0.776;0.522;0.012;0.313;-0.027;-0.007;0.015;0.008;305.0;-26.1;-26.7;16.0;149.1;4.5;-87.1;0.0;30.6;39.46895;-0.34107;68.8;NaN;;14.116;;0 / 28;5965;2021-10-27 16:52:43:168
0.792;9.526;0.471;9.764;-0.785;0.517;0.003;0.258;-0.023;-0.007;0.015;0.008;305.0;-26.4;-26.5;16.4;149.0;4.7;-86.9;0.0;30.6;39.46895;-0.34107;68.8;NaN;;14.116;;0 / 28;6015;2021-10-27 16:52:43:218
0.751;9.43;0.485;9.764;-0.761;0.493;0.033;0.312;0.006;-0.007;0.015;0.008;305.0;-26.2;-26.5;16.4;149.1;4.5;-87.1;0.0;30.6;39.46895;-0.34107;68.8;NaN;;14.116;;0 / 28;6064;2021-10-27 16:52:43:267
0.792;9.462;0.497;9.764;-0.8;0.493;0.008;0.339;-0.004;-0.007;0.015;0.008;305.0;-26.3;-26.3;16.8;146.8;4.7;-87.1;0.0;33.03;39.46895;-0.34107;68.8;NaN;;14.116;;0 / 28;6115;2021-10-27 16:52:43:318
0.686;9.474;0.416;9.773;-0.704;0.436;0.066;0.284;0.082;-0.008;0.002;0.005;305.0;-25.8;-26.2;16.7;146.9;4.4;-87.4;0.0;33.03;39.46895;-0.34107;68.8;NaN;;14.116;;0 / 28;6165;2021-10-27 16:52:43:368
0.749;9.531;0.49;9.764;-0.785;0.479;0.053;0.27;0.014;-0.005;-0.044;-0.002;305.0;-26.3;-26.6;16.9;146.8;4.3;-87.2;0.0;33.03;39.46895;-0.34107;68.8;NaN;;14.116;;0 / 28;6214;2021-10-27 16:52:43:417
0.758;9.485;0.466;9.768;-0.742;0.436;0.065;0.243;0.028;-0.004;-0.051;-0.007;305.0;-25.9;-26.5;17.0;146.9;4.6;-87.4;0.0;33.03;39.46895;-0.34107;68.8;NaN;;14.116;;0 / 28;6264;2021-10-27 16:52:43:467
0.744;9.462;0.476;9.764;-0.8;0.493;0.005;0.325;0.038;0.004;-0.049;-0.013;305.0;-25.7;-26.3;16.7;146.8;4.7;-87.1;0.0;33.03;39.46895;-0.34107;68.8;NaN;;14.116;;0 / 28;6315;2021-10-27 16:52:43:518
0.751;9.471;0.509;9.764;-0.79;0.493;0.028;0.34;0.022;-0.001;-0.055;-0.008;305.0;-25.4;-26.4;16.4;148.1;4.5;-86.9;0.0;33.03;39.46895;-0.34107;68.8;NaN;;14.116;;0 / 28;6365;2021-10-27 16:52:43:568
0.78;9.493;0.473;9.764;-0.8;0.474;-0.028;0.258;0.02;-0.001;-0.056;-0.005;305.0;-25.7;-26.3;16.4;148.2;4.6;-87.1;0.0;33.03;39.46895;-0.34107;68.8;NaN;;14.116;;0 / 28;6415;2021-10-27 16:52:43:618
0.758;9.442;0.452;9.764;-0.79;0.464;0.031;0.285;0.032;0.0;-0.025;0.009;305.0;-25.9;-26.8;16.4;148.3;4.8;-87.1;0.0;32.41;39.46895;-0.34107;68.8;NaN;;14.116;;0 / 28;6465;2021-10-27 16:52:43:668
0.765;9.447;0.493;9.764;-0.776;0.464;0.008;0.285;0.031;0.002;-0.005;0.008;305.0;-25.9;-26.8;16.5;147.7;4.6;-87.1;0.0;32.41;39.46895;-0.34107;68.8;NaN;;14.116;;0 / 28;6515;2021-10-27 16:52:43:718
0.751;9.45;0.447;9.768;-0.761;0.45;-0.002;0.312;0.015;0.005;0.001;0.007;305.0;-25.6;-27.1;16.4;149.1;4.5;-87.2;0.0;32.41;39.46895;-0.34107;68.8;NaN;;14.116;;0 / 28;6564;2021-10-27 16:52:43:767
0.753;9.49;0.483;9.764;-0.757;0.508;0.027;0.244;0.027;0.006;0.007;0.006;305.0;-25.8;-26.8;16.5;147.8;4.5;-87.3;0.0;32.41;39.46895;-0.34107;68.8;NaN;;14.116;;0 / 28;6615;2021-10-27 16:52:43:818
0.749;9.459;0.418;9.768;-0.728;0.464;0.057;0.312;0.05;0.006;0.007;0.006;305.0;-25.4;-26.5;16.4;149.3;4.5;-87.4;0.0;32.41;39.46895;-0.34107;68.8;NaN;;14.116;;0 / 28;6665;2021-10-27 16:52:43:868
0.782;9.502;0.459;9.764;-0.781;0.445;0.056;0.258;0.047;0.006;0.007;0.006;305.0;-25.4;-26.2;16.4;148.4;4.6;-87.4;0.0;32.41;39.46895;-0.34107;68.8;NaN;;14.116;;0 / 28;6715;2021-10-27 16:52:43:918
0.785;9.462;0.478;9.764;-0.776;0.464;0.011;0.326;0.0;0.01;0.0;-0.006;305.0;-25.4;-26.5;16.3;148.3;4.7;-87.2;0.0;34.08;39.46895;-0.34107;68.8;NaN;;14.116;;0 / 28;6765;2021-10-27 16:52:43:968
0.777;9.488;0.469;9.764;-0.771;0.479;-0.017;0.286;-0.002;0.01;0.0;-0.006;305.0;-25.6;-26.8;16.5;149.2;4.6;-87.3;0.0;34.08;39.46895;-0.34107;68.8;NaN;;14.116;;0 / 28;6815;2021-10-27 16:52:44:018
0.78;9.483;0.404;9.764;-0.828;0.407;-0.045;0.313;0.023;0.002;-0.012;0.004;305.0;-25.8;-26.9;16.3;149.2;4.9;-87.1;0.0;34.08;39.46895;-0.34107;68.8;NaN;;14.116;;0 / 28;6864;2021-10-27 16:52:44:067
0.763;9.481;0.457;9.764;-0.785;0.464;0.028;0.285;-0.005;0.0;-0.014;0.009;301.0;-26.0;-26.5;16.3;149.2;4.6;-87.3;0.0;34.08;39.46895;-0.34107;68.8;NaN;;14.116;;0 / 28;6915;2021-10-27 16:52:44:118
0.737;9.521;0.414;9.768;-0.742;0.464;0.061;0.299;0.062;0.002;0.01;0.008;301.0;-26.0;-26.4;16.3;148.5;4.4;-87.6;0.0;34.08;39.46895;-0.34107;68.8;NaN;;14.116;;0 / 28;6965;2021-10-27 16:52:44:168
0.785;9.483;0.454;9.764;-0.814;0.479;0.022;0.312;0.021;0.006;0.029;0.005;301.0;-25.9;-26.5;16.4;148.4;4.6;-87.4;0.0;34.08;39.46895;-0.34107;68.8;NaN;;14.116;;0 / 28;7014;2021-10-27 16:52:44:217
0.737;9.507;0.45;9.764;-0.785;0.464;0.05;0.271;-0.008;0.005;0.032;0.001;301.0;-26.1;-26.5;16.7;147.0;4.8;-87.4;0.0;34.08;39.46895;-0.34107;68.8;NaN;;14.116;;0 / 28;7065;2021-10-27 16:52:44:268
0.751;9.545;0.445;9.768;-0.747;0.464;0.035;0.217;0.032;0.003;0.027;0.0;301.0;-26.2;-26.7;16.5;147.8;4.5;-87.3;0.0;33.55;39.46895;-0.34107;68.8;NaN;;14.116;;0 / 28;7115;2021-10-27 16:52:44:318
0.77;9.488;0.45;9.764;-0.8;0.508;0.007;0.312;-0.008;-0.002;0.013;0.0;301.0;-26.6;-26.6;16.9;147.6;4.4;-87.1;0.0;33.55;39.46895;-0.34107;68.8;NaN;;14.116;;0 / 28;7165;2021-10-27 16:52:44:368
0.73;9.445;0.392;9.768;-0.733;0.45;0.075;0.339;0.048;-0.003;0.001;-0.001;300.0;-26.5;-26.4;16.9;147.9;4.5;-87.5;0.0;33.55;39.46895;-0.34107;68.8;NaN;;14.116;;0 / 28;7214;2021-10-27 16:52:44:417
0.789;9.505;0.502;9.764;-0.785;0.488;-0.007;0.285;-0.02;0.0;0.0;0.0;300.0;-26.4;-26.5;17.0;147.7;4.7;-87.1;0.0;33.55;39.46895;-0.34107;68.8;NaN;;14.116;;0 / 28;7265;2021-10-27 16:52:44:468
0.768;9.555;0.371;9.768;-0.742;0.421;0.074;0.244;0.062;0.0;0.0;0.0;300.0;-26.1;-26.3;17.0;146.9;4.5;-87.3;0.0;33.55;39.46895;-0.34107;68.8;NaN;;14.116;;0 / 28;7315;2021-10-27 16:52:44:518
0.732;9.481;0.447;9.768;-0.757;0.436;0.057;0.312;0.006;0.0;0.0;0.0;300.0;-26.2;-26.0;16.7;146.8;4.4;-87.3;0.0;33.55;39.46895;-0.34107;68.8;NaN;;14.116;;0 / 28;7365;2021-10-27 16:52:44:568
0.758;9.5;0.418;9.768;-0.742;0.421;0.053;0.286;0.033;0.0;0.0;0.0;300.0;-26.3;-25.8;16.7;146.8;4.4;-87.2;0.0;33.78;39.46895;-0.34107;68.8;NaN;;14.116;;0 / 28;7414;2021-10-27 16:52:44:617
0.701;9.538;0.404;9.773;-0.699;0.35;0.072;0.286;0.07;0.0;0.0;0.0;300.0;-26.3;-25.9;16.8;147.0;4.3;-87.7;0.0;33.78;39.46895;-0.34107;68.8;NaN;;14.116;;0 / 28;7465;2021-10-27 16:52:44:668
0.751;9.452;0.416;9.768;-0.761;0.436;0.026;0.314;0.052;0.016;0.031;-0.011;300.0;-26.2;-26.2;16.7;146.9;4.5;-87.4;0.0;33.78;39.46895;-0.34107;68.8;NaN;;14.116;;0 / 28;7515;2021-10-27 16:52:44:718
0.746;9.497;0.385;9.773;-0.742;0.378;0.006;0.302;0.098;0.02;0.027;-0.008;299.0;-26.1;-26.2;17.1;147.2;4.4;-87.8;0.0;33.78;39.46895;-0.34107;68.8;NaN;;14.116;;0 / 28;7565;2021-10-27 16:52:44:768
0.725;9.505;0.378;9.773;-0.728;0.35;0.03;0.289;0.008;0.013;0.013;-0.004;299.0;-26.0;-26.6;16.7;147.0;4.5;-87.5;0.0;33.78;39.46895;-0.34107;68.8;NaN;;14.116;;0 / 28;7615;2021-10-27 16:52:44:818
0.734;9.469;0.445;9.768;-0.776;0.45;0.014;0.302;-0.023;0.009;0.005;-0.003;299.0;-26.0;-26.6;16.6;147.8;4.0;-87.5;0.0;33.78;39.46895;-0.34107;68.8;NaN;;14.116;;0 / 28;7665;2021-10-27 16:52:44:868
0.732;9.538;0.387;9.773;-0.723;0.393;0.0;0.303;0.029;0.003;-0.01;0.0;299.0;-26.0;-26.5;16.3;149.4;4.2;-87.7;0.0;33.78;39.46895;-0.34107;68.8;NaN;;14.116;;0 / 28;7715;2021-10-27 16:52:44:918
0.706;9.5;0.406;9.773;-0.699;0.407;0.055;0.303;0.041;0.002;0.0;-0.001;299.0;-26.2;-26.6;16.7;147.8;4.1;-87.6;0.0;32.64;39.46895;-0.34107;68.8;NaN;;14.116;;0 / 28;7764;2021-10-27 16:52:44:967
0.689;9.493;0.414;9.773;-0.728;0.407;0.027;0.316;-0.001;0.003;0.01;-0.001;299.0;-26.0;-26.5;16.7;147.7;4.4;-87.2;0.0;32.64;39.46895;-0.34107;68.8;NaN;;14.116;;0 / 28;7815;2021-10-27 16:52:45:018
0.73;9.488;0.459;9.764;-0.785;0.479;0.011;0.303;-0.029;0.001;0.006;-0.007;299.0;-25.9;-26.8;16.8;147.9;4.3;-87.6;0.0;32.64;39.46895;-0.34107;68.8;NaN;;14.116;;0 / 28;7864;2021-10-27 16:52:45:067
0.751;9.485;0.406;9.768;-0.761;0.407;-0.019;0.33;-0.001;-0.002;-0.001;-0.005;299.0;-25.4;-27.1;16.1;149.1;4.5;-87.2;0.0;32.64;39.46895;-0.34107;68.8;NaN;;14.116;;0 / 28;7914;2021-10-27 16:52:45:117
0.773;9.481;0.45;9.764;-0.828;0.421;-0.034;0.289;-0.025;-0.009;-0.016;-0.002;299.0;-25.3;-26.7;16.1;149.2;4.3;-87.4;0.0;32.64;39.46895;-0.34107;68.8;NaN;;14.116;;0 / 28;7965;2021-10-27 16:52:45:168
0.773;9.531;0.421;9.768;-0.781;0.407;-0.016;0.235;0.034;-0.011;-0.043;0.004;299.0;-25.4;-26.6;16.2;149.5;4.6;-87.6;0.0;32.64;39.46895;-0.34107;68.8;NaN;;14.116;;0 / 28;8015;2021-10-27 16:52:45:218
0.718;9.464;0.38;9.773;-0.718;0.393;0.057;0.302;0.008;-0.006;-0.027;0.011;299.0;-25.7;-26.5;16.7;148.0;4.3;-87.7;0.0;32.16;39.46895;-0.34107;68.8;NaN;;14.116;;0 / 28;8065;2021-10-27 16:52:45:268
0.746;9.478;0.442;9.764;-0.761;0.493;0.006;0.288;0.023;-0.003;-0.019;0.007;299.0;-25.7;-26.7;16.4;147.8;4.5;-87.4;0.0;32.16;39.46895;-0.34107;68.8;NaN;;14.116;;0 / 28;8114;2021-10-27 16:52:45:317
0.739;9.485;0.418;9.768;-0.757;0.46;0.009;0.261;0.036;0.001;-0.005;0.004;299.0;-25.8;-26.7;16.2;149.3;4.4;-87.4;0.0;32.16;39.46895;-0.34107;68.8;NaN;;14.116;;0 / 28;8165;2021-10-27 16:52:45:368
0.801;9.457;0.459;9.764;-0.8;0.436;-0.018;0.315;-0.005;0.001;0.016;0.002;299.0;-26.0;-26.5;16.1;149.4;4.7;-87.4;0.0;32.16;39.46895;-0.34107;68.8;NaN;;14.116;;0 / 28;8215;2021-10-27 16:52:45:418
0.71;9.495;0.416;9.768;-0.761;0.421;0.039;0.274;0.023;0.002;0.025;0.005;299.0;-26.0;-26.3;16.1;148.4;4.3;-87.5;0.0;32.16;39.46895;-0.34107;68.8;NaN;;14.116;;0 / 28;8265;2021-10-27 16:52:45:468
0.739;9.469;0.404;9.773;-0.728;0.421;0.027;0.288;0.023;0.002;0.025;0.005;299.0;-25.4;-26.4;16.3;148.5;4.5;-87.6;0.0;32.16;39.46895;-0.34107;68.8;NaN;;14.116;;0 / 28;8314;2021-10-27 16:52:45:517
0.686;9.481;0.45;9.773;-0.704;0.45;0.055;0.288;0.023;0.003;0.025;0.002;299.0;-25.5;-26.4;16.3;148.4;4.2;-87.5;0.0;32.16;39.46895;-0.34107;68.8;NaN;;14.116;;0 / 28;8365;2021-10-27 16:52:45:568
0.775;9.488;0.43;9.768;-0.757;0.421;-0.026;0.288;0.009;0.002;0.006;0.0;299.0;-25.6;-26.5;16.3;148.5;4.4;-87.5;0.0;30.61;39.46895;-0.34107;68.8;NaN;;14.116;;0 / 28;8415;2021-10-27 16:52:45:618
0.73;9.478;0.45;9.768;-0.757;0.464;0.028;0.288;0.035;0.0;-0.006;-0.002;299.0;-26.0;-26.4;16.2;148.4;4.6;-87.4;0.0;30.61;39.46895;-0.34107;68.8;NaN;;14.116;;0 / 28;8465;2021-10-27 16:52:45:668
0.751;9.457;0.397;9.768;-0.747;0.436;0.028;0.288;0.008;0.0;0.0;0.0;299.0;-25.6;-26.7;16.4;148.5;4.5;-87.5;0.0;30.61;39.46895;-0.34107;68.8;NaN;;14.116;;0 / 28;8515;2021-10-27 16:52:45:718
0.739;9.488;0.433;9.768;-0.771;0.45;0.0;0.301;0.008;0.0;0.0;0.0;297.0;-25.2;-26.6;16.3;147.9;4.3;-87.7;0.0;30.61;39.46895;-0.34107;68.8;NaN;;14.116;;0 / 28;8565;2021-10-27 16:52:45:768
0.732;9.474;0.397;9.773;-0.747;0.393;0.042;0.301;0.049;0.0;0.0;0.0;297.0;-25.0;-26.8;16.4;149.5;4.5;-87.7;0.0;30.61;39.46895;-0.34107;68.8;NaN;;14.116;;0 / 28;8614;2021-10-27 16:52:45:817
0.73;9.428;0.438;9.768;-0.776;0.45;0.028;0.329;0.007;0.0;-0.013;-0.001;297.0;-25.1;-26.7;16.4;149.2;4.4;-87.4;0.0;30.61;39.46895;-0.34107;68.8;NaN;;14.116;;0 / 28;8665;2021-10-27 16:52:45:868
0.713;9.466;0.375;9.768;-0.747;0.421;0.042;0.247;0.06;0.003;-0.035;-0.002;297.0;-25.4;-26.5;16.2;148.5;4.3;-87.7;0.0;33.1;39.46895;-0.34107;68.8;NaN;;14.116;;0 / 28;8715;2021-10-27 16:52:45:918
0.78;9.459;0.447;9.764;-0.771;0.464;-0.028;0.315;-0.025;0.002;-0.025;-0.003;297.0;-25.6;-26.3;16.6;148.6;4.5;-87.7;0.0;33.1;39.46895;-0.34107;68.8;NaN;;14.116;;0 / 28;8765;2021-10-27 16:52:45:968
0.694;9.483;0.385;9.773;-0.699;0.407;0.053;0.288;0.029;0.001;-0.011;-0.003;297.0;-26.1;-26.2;16.4;148.4;4.1;-87.6;0.0;33.1;39.46895;-0.34107;68.8;NaN;;14.116;;0 / 28;8815;2021-10-27 16:52:46:018
0.698;9.466;0.447;9.768;-0.733;0.436;0.077;0.288;-0.013;0.002;0.017;-0.007;297.0;-26.1;-26.0;16.7;146.9;4.1;-87.5;0.0;33.1;39.46895;-0.34107;68.8;NaN;;14.116;;0 / 28;8864;2021-10-27 16:52:46:067
0.744;9.495;0.454;9.759;-0.814;0.488;0.005;0.289;0.015;0.0;0.034;-0.006;297.0;-26.0;-26.0;16.5;148.3;4.5;-87.2;0.0;33.1;39.46895;-0.34107;68.8;NaN;;14.116;;0 / 28;8914;2021-10-27 16:52:46:117
0.787;9.447;0.435;9.764;-0.785;0.45;-0.038;0.316;-0.011;0.0;0.028;-0.004;297.0;-26.0;-26.4;16.7;147.1;4.7;-87.5;0.0;33.1;39.46895;-0.34107;68.8;NaN;;14.116;;0 / 28;8965;2021-10-27 16:52:46:168
0.787;9.509;0.435;9.764;-0.8;0.45;0.015;0.275;-0.037;-0.005;0.008;-0.001;297.0;-25.9;-26.8;16.7;147.9;4.7;-87.4;0.0;33.1;39.46895;-0.34107;68.8;NaN;;14.116;;0 / 28;9015;2021-10-27 16:52:46:218
0.77;9.452;0.44;9.764;-0.814;0.45;-0.006;0.275;0.009;-0.01;-0.02;0.013;297.0;-26.0;-26.9;17.0;147.8;4.5;-87.3;0.0;31.08;39.46895;-0.34107;68.8;NaN;;14.116;;0 / 28;9065;2021-10-27 16:52:46:268
0.739;9.497;0.387;9.768;-0.761;0.407;0.013;0.274;0.0;-0.014;-0.032;0.012;297.0;-26.0;-26.8;16.6;147.9;4.4;-87.4;0.0;31.08;39.46895;-0.34107;68.8;NaN;;14.116;;0 / 28;9115;2021-10-27 16:52:46:318
0.698;9.5;0.433;9.773;-0.718;0.436;0.072;0.301;0.031;-0.007;-0.023;0.006;297.0;-26.0;-26.5;16.6;147.9;4.2;-87.6;0.0;31.08;39.46895;-0.34107;68.8;NaN;;14.116;;0 / 28;9165;2021-10-27 16:52:46:368
0.722;9.485;0.387;9.768;-0.757;0.431;0.073;0.314;0.033;-0.005;-0.013;-0.001;298.0;-26.0;-26.8;16.3;149.3;4.4;-87.5;0.0;31.08;39.46895;-0.34107;68.8;NaN;;14.116;;0 / 28;9215;2021-10-27 16:52:46:418
0.792;9.435;0.411;9.768;-0.776;0.421;0.012;0.315;0.033;-0.005;-0.013;-0.001;298.0;-26.2;-26.4;16.1;148.3;4.3;-87.4;0.0;31.08;39.46895;-0.34107;68.8;NaN;;14.116;;0 / 28;9265;2021-10-27 16:52:46:468
0.708;9.464;0.399;9.773;-0.713;0.393;0.034;0.315;0.043;-0.005;-0.013;-0.001;298.0;-26.3;-26.5;16.4;149.6;4.5;-87.8;0.0;31.08;39.46895;-0.34107;68.8;NaN;;14.116;;0 / 28;9315;2021-10-27 16:52:46:518
0.708;9.507;0.418;9.768;-0.728;0.421;0.042;0.275;0.024;-0.005;-0.013;-0.001;298.0;-26.0;-26.5;16.7;149.4;4.1;-87.8;0.0;30.12;39.46895;-0.34107;68.8;NaN;;14.116;;0 / 28;9365;2021-10-27 16:52:46:568
0.73;9.512;0.426;9.768;-0.757;0.421;-0.002;0.262;0.007;0.011;0.04;-0.005;298.0;-25.6;-26.5;16.7;147.0;4.4;-87.5;0.0;30.12;39.46895;-0.34107;68.8;NaN;;14.116;;0 / 28;9415;2021-10-27 16:52:46:618
0.756;9.459;0.433;9.768;-0.733;0.45;0.022;0.33;0.017;0.007;0.007;-0.005;298.0;-25.5;-26.3;16.6;147.0;4.4;-87.5;0.0;30.12;39.46895;-0.34107;68.8;NaN;;14.116;;0 / 28;9465;2021-10-27 16:52:46:668
0.789;9.497;0.428;9.759;-0.795;0.503;0.036;0.317;-0.026;0.005;-0.006;-0.002;298.0;-25.6;-26.1;16.3;146.9;4.4;-87.4;0.0;30.12;39.46895;-0.34107;68.8;NaN;;14.116;;0 / 28;9515;2021-10-27 16:52:46:718
0.756;9.497;0.392;9.768;-0.814;0.35;-0.043;0.276;0.083;-0.004;-0.047;0.006;298.0;-25.6;-26.1;16.3;148.3;4.6;-87.1;0.0;30.12;39.46895;-0.34107;68.8;NaN;;14.116;;0 / 28;9564;2021-10-27 16:52:46:767
0.746;9.488;0.44;9.768;-0.757;0.436;0.028;0.316;0.001;-0.003;-0.038;0.006;298.0;-25.4;-26.1;16.2;148.4;4.4;-87.4;0.0;30.12;39.46895;-0.34107;68.8;NaN;;14.116;;0 / 28;9615;2021-10-27 16:52:46:818
0.77;9.485;0.404;9.768;-0.742;0.407;0.046;0.302;0.001;0.0;0.001;0.005;298.0;-25.5;-26.0;16.1;148.5;4.5;-87.5;0.0;30.12;39.46895;-0.34107;68.8;NaN;;14.116;;0 / 28;9665;2021-10-27 16:52:46:868
0.751;9.49;0.44;9.768;-0.757;0.421;0.021;0.275;-0.013;0.002;0.022;0.005;298.0;-25.7;-26.1;16.0;148.3;4.4;-87.4;0.0;31.13;39.46895;-0.34107;68.8;NaN;;14.116;;0 / 28;9714;2021-10-27 16:52:46:917
0.749;9.466;0.442;9.773;-0.704;0.421;0.023;0.261;0.014;0.003;0.03;0.004;298.0;-26.0;-26.0;16.0;148.6;4.6;-87.7;0.0;31.13;39.46895;-0.34107;68.8;NaN;;14.116;;0 / 28;9765;2021-10-27 16:52:46:968
0.756;9.476;0.38;9.764;-0.8;0.407;0.01;0.329;0.001;0.0;0.033;0.003;298.0;-25.7;-26.0;16.4;148.6;4.7;-87.6;0.0;31.13;39.46895;-0.34107;68.8;NaN;;14.116;;0 / 28;9815;2021-10-27 16:52:47:018
0.715;9.517;0.402;9.768;-0.737;0.417;0.024;0.275;0.016;-0.001;0.032;0.002;298.0;-25.4;-25.9;16.4;148.3;4.3;-87.4;0.0;31.13;39.46895;-0.34107;68.8;NaN;;14.116;;0 / 28;9865;2021-10-27 16:52:47:068
0.742;9.447;0.43;9.773;-0.704;0.407;0.01;0.275;0.003;-0.001;0.032;0.002;297.0;-25.3;-26.2;16.6;148.5;4.6;-87.5;0.0;31.13;39.46895;-0.34107;68.8;NaN;;14.116;;0 / 28;9915;2021-10-27 16:52:47:118
0.746;9.464;0.433;9.768;-0.757;0.436;0.037;0.315;0.03;-0.001;0.032;0.002;297.0;-25.6;-26.2;16.4;147.0;4.3;-87.7;0.0;31.13;39.46895;-0.34107;68.8;NaN;;14.116;;0 / 28;9965;2021-10-27 16:52:47:168
0.734;9.483;0.371;9.768;-0.761;0.436;-0.004;0.275;-0.011;0.0;-0.025;-0.001;297.0;-26.0;-26.4;16.5;146.9;4.5;-87.4;0.0;29.47;39.46895;-0.34107;68.8;NaN;;14.116;;0 / 28;10015;2021-10-27 16:52:47:218
0.775;9.471;0.404;9.768;-0.771;0.407;-0.001;0.261;0.028;0.001;-0.024;0.004;297.0;-26.1;-26.2;16.6;147.1;4.6;-87.6;0.0;29.47;39.46895;-0.34107;68.8;NaN;;14.116;;0 / 28;10065;2021-10-27 16:52:47:268
0.744;9.481;0.366;9.768;-0.776;0.378;0.013;0.261;0.027;0.002;-0.02;0.004;297.0;-26.0;-26.1;16.7;147.3;4.4;-88.0;0.0;29.47;39.46895;-0.34107;68.8;NaN;;14.116;;0 / 28;10115;2021-10-27 16:52:47:318
0.737;9.469;0.361;9.768;-0.771;0.35;0.017;0.342;0.077;0.01;0.0;0.005;297.0;-25.8;-26.1;16.8;147.2;4.5;-87.9;0.0;29.47;39.46895;-0.34107;68.8;NaN;;14.116;;0 / 28;10164;2021-10-27 16:52:47:367
0.725;9.481;0.394;9.773;-0.742;0.378;0.046;0.288;0.056;0.013;-0.019;0.002;295.0;-25.5;-26.0;17.1;147.0;4.5;-87.5;0.0;29.47;39.46895;-0.34107;68.8;NaN;;14.116;;0 / 28;10215;2021-10-27 16:52:47:418
0.77;9.5;0.375;9.768;-0.757;0.407;0.02;0.247;0.049;0.014;-0.03;0.001;295.0;-25.5;-26.3;16.8;147.3;4.5;-87.9;0.0;29.47;39.46895;-0.34107;68.8;NaN;;14.116;;0 / 28;10265;2021-10-27 16:52:47:468
0.782;9.476;0.332;9.764;-0.814;0.393;0.034;0.289;0.003;0.011;-0.036;-0.003;295.0;-25.6;-26.2;16.8;147.2;4.8;-87.7;0.0;29.47;39.46895;-0.34107;68.8;NaN;;14.116;;0 / 28;10315;2021-10-27 16:52:47:518
0.686;9.495;0.339;9.773;-0.728;0.35;0.059;0.289;0.023;0.009;-0.038;-0.006;295.0;-25.3;-26.7;16.7;148.0;4.3;-87.8;0.0;30.71;39.46895;-0.34107;68.8;NaN;;14.116;;0 / 28;10365;2021-10-27 16:52:47:568
0.739;9.457;0.361;9.773;-0.757;0.335;0.029;0.262;0.032;0.007;-0.031;-0.008;295.0;-25.7;-26.8;16.9;148.0;4.3;-87.8;0.0;30.71;39.46895;-0.34107;68.8;NaN;;14.116;;0 / 28;10415;2021-10-27 16:52:47:618
0.749;9.493;0.354;9.768;-0.785;0.364;0.025;0.303;0.055;0.005;-0.021;-0.007;295.0;-25.7;-26.8;17.2;147.9;4.4;-87.5;0.0;30.71;39.46895;-0.34107;68.8;NaN;;14.116;;0 / 28;10465;2021-10-27 16:52:47:668
0.758;9.481;0.397;9.768;-0.79;0.369;0.023;0.304;0.012;0.004;-0.018;-0.008;295.0;-25.8;-26.5;17.1;148.2;4.6;-87.8;0.0;30.71;39.46895;-0.34107;68.8;NaN;;14.116;;0 / 28;10514;2021-10-27 16:52:47:717
0.739;9.49;0.38;9.768;-0.757;0.378;0.02;0.263;0.01;0.004;-0.018;-0.008;295.0;-25.4;-26.4;17.0;147.1;4.4;-87.8;0.0;30.71;39.46895;-0.34107;68.8;NaN;;14.116;;0 / 28;10565;2021-10-27 16:52:47:768
0.768;9.478;0.363;9.773;-0.742;0.364;0.007;0.277;0.009;0.004;-0.018;-0.008;295.0;-25.6;-26.5;17.0;147.2;4.4;-87.8;0.0;30.71;39.46895;-0.34107;68.8;NaN;;14.116;;0 / 28;10615;2021-10-27 16:52:47:818
0.751;9.442;0.351;9.768;-0.785;0.393;-0.017;0.317;-0.005;0.004;-0.018;-0.008;295.0;-25.6;-26.5;17.3;147.3;4.4;-88.0;0.0;30.63;39.46895;-0.34107;68.8;NaN;;14.116;;0 / 28;10664;2021-10-27 16:52:47:867
0.72;9.481;0.299;9.773;-0.733;0.35;0.028;0.29;0.089;-0.001;-0.032;0.005;295.0;-25.7;-26.5;17.0;147.2;4.3;-88.0;0.0;30.63;39.46895;-0.34107;68.8;NaN;;14.116;;0 / 28;10715;2021-10-27 16:52:47:918
0.713;9.483;0.347;9.773;-0.718;0.383;0.043;0.29;0.071;0.01;-0.012;0.004;295.0;-25.6;-26.2;16.5;147.4;4.3;-88.2;0.0;30.63;39.46895;-0.34107;68.8;NaN;;14.116;;0 / 28;10766;2021-10-27 16:52:47:969
0.775;9.485;0.375;9.768;-0.771;0.335;0.058;0.29;-0.015;0.011;-0.009;0.003;295.0;-25.9;-26.2;16.6;146.9;4.3;-87.5;0.0;30.63;39.46895;-0.34107;68.8;NaN;;14.116;;0 / 28;10815;2021-10-27 16:52:48:018
0.686;9.533;0.323;9.773;-0.728;0.321;0.004;0.263;0.062;0.02;0.056;-0.001;295.0;-25.9;-26.0;16.6;147.5;4.7;-88.1;0.0;30.63;39.46895;-0.34107;68.8;NaN;;14.116;;0 / 28;10865;2021-10-27 16:52:48:068
0.663;9.471;0.368;9.778;-0.704;0.34;0.081;0.305;0.025;0.017;0.072;-0.005;292.0;-25.7;-26.1;16.7;147.1;4.2;-87.9;0.0;30.63;39.46895;-0.34107;68.8;NaN;;14.116;;0 / 28;10915;2021-10-27 16:52:48:118
0.715;9.464;0.332;9.773;-0.728;0.335;0.062;0.278;0.022;0.012;0.058;-0.012;292.0;-25.5;-26.5;16.7;147.2;4.2;-88.0;0.0;30.63;39.46895;-0.34107;68.8;NaN;;14.116;;0 / 28;10965;2021-10-27 16:52:48:168
0.722;9.452;0.356;9.773;-0.761;0.354;0.029;0.306;-0.021;0.008;0.044;-0.012;292.0;-25.4;-26.5;16.5;147.2;4.3;-88.0;0.0;28.66;39.46895;-0.34107;68.8;NaN;;14.116;;0 / 28;11015;2021-10-27 16:52:48:218
0.701;9.474;0.294;9.778;-0.718;0.268;0.01;0.292;0.087;0.003;0.017;-0.006;292.0;-25.4;-26.5;16.9;148.3;4.6;-88.1;0.0;28.66;39.46895;-0.34107;68.8;NaN;;14.116;;0 / 28;11065;2021-10-27 16:52:48:268
0.715;9.521;0.344;9.768;-0.771;0.335;0.049;0.252;0.005;0.002;-0.002;-0.005;292.0;-25.6;-26.3;17.0;147.2;4.1;-88.0;0.0;28.66;39.46895;-0.34107;68.8;NaN;;14.116;;0 / 28;11115;2021-10-27 16:52:48:318
0.732;9.493;0.275;9.773;-0.776;0.311;0.034;0.293;0.044;0.004;-0.01;-0.002;292.0;-25.8;-26.4;16.7;147.4;4.3;-88.3;0.0;28.66;39.46895;-0.34107;68.8;NaN;;14.116;;0 / 28;11165;2021-10-27 16:52:48:368
0.686;9.447;0.318;9.778;-0.718;0.326;0.034;0.32;0.014;0.004;-0.01;-0.002;290.0;-26.0;-26.6;16.9;147.3;4.4;-88.0;0.0;28.66;39.46895;-0.34107;68.8;NaN;;14.116;;0 / 28;11215;2021-10-27 16:52:48:418
0.706;9.529;0.344;9.773;-0.742;0.321;0.019;0.279;0.025;0.005;-0.011;-0.003;290.0;-25.9;-26.3;16.4;147.2;4.4;-87.9;0.0;28.66;39.46895;-0.34107;68.8;NaN;;14.116;;0 / 28;11265;2021-10-27 16:52:48:468
0.682;9.478;0.315;9.778;-0.704;0.34;0.073;0.334;0.051;0.005;-0.011;-0.003;290.0;-25.5;-26.5;16.6;147.2;4.1;-88.0;0.0;30.66;39.46895;-0.34107;68.8;NaN;;14.116;;0 / 28;11315;2021-10-27 16:52:48:518
0.682;9.5;0.342;9.778;-0.661;0.364;0.097;0.28;-0.019;0.005;0.018;-0.004;290.0;-25.4;-26.5;16.4;148.7;3.9;-88.1;0.0;30.66;39.46895;-0.34107;68.8;NaN;;14.116;;0 / 28;11365;2021-10-27 16:52:48:568
0.701;9.495;0.327;9.778;-0.713;0.306;0.025;0.253;-0.007;0.01;0.043;-0.011;290.0;-25.4;-26.2;16.5;148.9;4.4;-88.1;0.0;30.66;39.46895;-0.34107;68.8;NaN;;14.116;;0 / 28;11415;2021-10-27 16:52:48:618
0.694;9.512;0.325;9.773;-0.728;0.364;0.045;0.281;0.017;0.007;0.032;-0.01;290.0;-25.7;-26.2;16.4;148.8;4.4;-88.0;0.0;30.66;39.46895;-0.34107;68.8;NaN;;14.116;;0 / 28;11465;2021-10-27 16:52:48:668
0.698;9.49;0.43;9.768;-0.742;0.421;0.028;0.308;-0.052;0.004;0.028;-0.007;290.0;-25.7;-26.2;16.6;148.6;4.3;-87.9;0.0;30.66;39.46895;-0.34107;68.8;NaN;;14.116;;0 / 28;11515;2021-10-27 16:52:48:718
0.706;9.464;0.335;9.778;-0.69;0.364;0.039;0.295;0.033;-0.008;0.014;-0.003;291.0;-25.7;-26.1;16.8;147.3;4.1;-88.2;0.0;30.66;39.46895;-0.34107;68.8;NaN;;14.116;;0 / 28;11565;2021-10-27 16:52:48:768
0.677;9.485;0.359;9.773;-0.699;0.364;0.038;0.267;-0.03;-0.015;-0.001;-0.002;291.0;-25.7;-26.2;16.9;147.0;3.9;-87.8;0.0;30.66;39.46895;-0.34107;68.8;NaN;;14.116;;0 / 28;11615;2021-10-27 16:52:48:818
0.694;9.466;0.387;9.773;-0.704;0.378;0.01;0.294;-0.008;-0.013;-0.027;-0.003;291.0;-25.7;-26.1;16.7;147.2;3.9;-88.1;0.0;29.68;39.46895;-0.34107;68.8;NaN;;14.116;;0 / 28;11665;2021-10-27 16:52:48:868
0.703;9.519;0.366;9.778;-0.699;0.335;-0.018;0.281;-0.019;-0.009;-0.023;-0.003;291.0;-25.5;-26.0;16.4;148.7;4.1;-88.0;0.0;29.68;39.46895;-0.34107;68.8;NaN;;14.116;;0 / 28;11715;2021-10-27 16:52:48:918
0.698;9.493;0.394;9.773;-0.699;0.393;0.062;0.294;-0.015;-0.004;-0.009;-0.004;291.0;-25.4;-26.2;16.5;147.0;3.9;-87.8;0.0;29.68;39.46895;-0.34107;68.8;NaN;;14.116;;0 / 28;11765;2021-10-27 16:52:48:968
0.718;9.457;0.373;9.773;-0.718;0.354;0.047;0.335;-0.055;-0.004;-0.003;-0.004;291.0;-25.6;-26.6;16.7;147.1;4.3;-87.8;0.0;29.68;39.46895;-0.34107;68.8;NaN;;14.116;;0 / 28;11815;2021-10-27 16:52:49:018
0.734;9.526;0.361;9.773;-0.728;0.364;0.005;0.281;0.002;-0.005;0.0;-0.004;291.0;-25.9;-26.5;16.8;148.1;4.3;-88.0;0.0;29.68;39.46895;-0.34107;68.8;NaN;;14.116;;0 / 28;11865;2021-10-27 16:52:49:068
0.67;9.485;0.371;9.778;-0.675;0.34;0.058;0.322;0.033;-0.005;0.0;-0.004;292.0;-25.8;-26.6;16.7;148.0;4.0;-87.9;0.0;29.68;39.46895;-0.34107;68.8;NaN;;14.116;;0 / 28;11915;2021-10-27 16:52:49:118
0.679;9.529;0.39;9.773;-0.699;0.393;0.03;0.254;-0.02;-0.005;0.0;-0.004;292.0;-25.4;-26.5;16.7;148.0;4.1;-87.9;0.0;29.77;39.46895;-0.34107;68.8;NaN;;14.116;;0 / 28;11964;2021-10-27 16:52:49:167
0.708;9.497;0.363;9.773;-0.718;0.34;0.07;0.294;0.049;-0.005;0.0;-0.004;292.0;-25.4;-26.2;17.1;147.2;4.1;-88.0;0.0;29.77;39.46895;-0.34107;68.8;NaN;;14.116;;0 / 28;12015;2021-10-27 16:52:49:218
0.722;9.469;0.332;9.778;-0.709;0.34;-0.014;0.322;0.008;0.0;-0.017;-0.005;292.0;-25.2;-26.0;17.1;147.1;4.4;-87.8;0.0;29.77;39.46895;-0.34107;68.8;NaN;;14.116;;0 / 28;12065;2021-10-27 16:52:49:268
0.746;9.481;0.373;9.773;-0.757;0.35;-0.029;0.295;0.021;0.001;-0.024;-0.002;292.0;-25.5;-25.9;16.7;147.1;4.3;-87.8;0.0;29.77;39.46895;-0.34107;68.8;NaN;;14.116;;0 / 28;12115;2021-10-27 16:52:49:318
0.708;9.478;0.385;9.778;-0.704;0.321;-0.013;0.295;-0.008;0.0;-0.035;0.008;292.0;-25.6;-26.2;16.4;148.8;4.3;-88.1;0.0;29.77;39.46895;-0.34107;68.8;NaN;;14.116;;0 / 28;12165;2021-10-27 16:52:49:368
0.679;9.512;0.366;9.778;-0.704;0.335;0.034;0.294;-0.022;0.0;-0.035;0.013;291.0;-25.7;-25.9;16.2;148.6;4.1;-88.0;0.0;29.77;39.46895;-0.34107;68.8;NaN;;14.116;;0 / 28;12215;2021-10-27 16:52:49:418
0.727;9.454;0.339;9.773;-0.718;0.34;0.039;0.321;0.031;0.002;0.014;0.009;291.0;-25.7;-26.0;16.6;147.1;4.0;-87.9;0.0;29.77;39.46895;-0.34107;68.8;NaN;;14.116;;0 / 28;12265;2021-10-27 16:52:49:468
0.713;9.435;0.337;9.773;-0.733;0.34;0.027;0.266;0.004;0.003;0.04;0.002;291.0;-25.7;-25.8;17.0;147.3;4.3;-88.0;0.0;29.96;39.46895;-0.34107;68.8;NaN;;14.116;;0 / 28;12315;2021-10-27 16:52:49:518
0.679;9.5;0.318;9.773;-0.742;0.321;-0.041;0.294;0.017;0.003;0.029;0.001;291.0;-25.6;-26.2;17.3;147.4;4.5;-88.1;0.0;29.96;39.46895;-0.34107;68.8;NaN;;14.116;;0 / 28;12365;2021-10-27 16:52:49:568
0.72;9.49;0.323;9.773;-0.757;0.335;0.015;0.294;0.029;0.004;-0.015;0.002;291.0;-25.7;-26.4;16.8;147.1;3.9;-88.0;0.0;29.96;39.46895;-0.34107;68.8;NaN;;14.116;;0 / 28;12415;2021-10-27 16:52:49:618
0.725;9.514;0.351;9.773;-0.713;0.35;0.044;0.307;-0.014;0.003;-0.031;0.001;291.0;-25.7;-26.6;16.7;147.2;4.3;-88.0;0.0;29.96;39.46895;-0.34107;68.8;NaN;;14.116;;0 / 28;12464;2021-10-27 16:52:49:667
0.718;9.495;0.339;9.773;-0.713;0.321;0.031;0.266;0.038;0.003;-0.031;0.001;291.0;-25.6;-26.6;16.7;148.4;4.3;-88.4;0.0;29.96;39.46895;-0.34107;68.8;NaN;;14.116;;0 / 28;12514;2021-10-27 16:52:49:717
0.691;9.438;0.351;9.778;-0.69;0.364;0.058;0.321;-0.004;0.003;-0.031;0.001;291.0;-25.7;-26.5;16.8;148.2;4.5;-87.9;0.0;29.96;39.46895;-0.34107;68.8;NaN;;14.116;;0 / 28;12565;2021-10-27 16:52:49:768
0.751;9.517;0.332;9.773;-0.771;0.321;-0.011;0.307;0.009;0.003;-0.031;0.001;291.0;-26.1;-26.2;16.8;147.2;4.3;-87.9;0.0;30.31;39.46895;-0.34107;68.8;NaN;;14.116;;0 / 28;12615;2021-10-27 16:52:49:818
0.761;9.483;0.33;9.773;-0.757;0.335;-0.011;0.28;0.035;0.003;-0.031;0.001;291.0;-26.0;-26.0;16.7;147.3;4.4;-88.0;0.0;30.31;39.46895;-0.34107;68.8;NaN;;14.116;;0 / 28;12665;2021-10-27 16:52:49:868
0.703;9.485;0.325;9.773;-0.747;0.34;0.018;0.307;0.007;0.004;0.029;0.005;291.0;-26.2;-25.9;16.7;147.2;4.3;-88.0;0.0;30.31;39.46895;-0.34107;68.8;NaN;;14.116;;0 / 28;12715;2021-10-27 16:52:49:918
0.725;9.459;0.347;9.773;-0.742;0.35;0.023;0.321;0.032;0.006;0.034;0.012;291.0;-25.7;-25.9;16.7;147.1;4.1;-87.8;0.0;30.31;39.46895;-0.34107;68.8;NaN;;14.116;;0 / 28;12764;2021-10-27 16:52:49:967
0.663;9.462;0.371;9.778;-0.69;0.35;0.068;0.334;0.043;0.006;0.029;0.006;291.0;-25.7;-26.6;16.3;148.7;4.3;-87.9;0.0;30.31;39.46895;-0.34107;68.8;NaN;;14.116;;0 / 28;12814;2021-10-27 16:52:50:017
0.677;9.483;0.399;9.778;-0.675;0.35;0.041;0.307;0.028;0.005;0.027;0.001;291.0;-25.7;-26.8;16.1;149.6;3.9;-88.2;0.0;30.31;39.46892;-0.34102;69.4;NaN;;17.431;;0 / 28;12864;2021-10-27 16:52:50:067
0.742;9.524;0.387;9.768;-0.771;0.335;0.052;0.266;-0.041;0.004;0.038;-0.009;291.0;-26.0;-27.1;16.1;149.7;4.5;-88.0;0.0;30.85;39.46892;-0.34102;69.4;NaN;;17.431;;0 / 28;12915;2021-10-27 16:52:50:118
0.734;9.464;0.387;9.768;-0.776;0.421;0.005;0.335;-0.013;0.002;0.039;-0.009;291.0;-25.9;-26.8;16.1;149.6;4.6;-87.8;0.0;30.85;39.46892;-0.34102;69.4;NaN;;17.431;;0 / 28;12964;2021-10-27 16:52:50:167
0.73;9.485;0.378;9.773;-0.757;0.35;0.004;0.294;0.016;-0.005;0.033;-0.002;291.0;-26.0;-26.8;16.3;149.5;4.5;-87.8;0.0;30.85;39.46892;-0.34102;69.4;NaN;;17.431;;0 / 28;13015;2021-10-27 16:52:50:218
0.701;9.5;0.363;9.773;-0.728;0.364;0.059;0.321;0.021;-0.005;0.02;0.006;291.0;-25.9;-26.3;16.5;148.1;4.3;-88.0;0.0;30.85;39.46892;-0.34102;69.4;NaN;;17.431;;0 / 28;13065;2021-10-27 16:52:50:268
0.753;9.505;0.366;9.768;-0.8;0.35;0.034;0.294;0.009;-0.003;0.005;0.006;291.0;-25.7;-26.1;16.6;147.4;4.7;-88.0;0.0;30.85;39.46892;-0.34102;69.4;NaN;;17.431;;0 / 28;13115;2021-10-27 16:52:50:318
0.718;9.464;0.366;9.773;-0.733;0.354;0.023;0.334;0.011;-0.003;0.005;0.006;291.0;-25.4;-25.9;16.5;147.2;4.3;-88.0;0.0;30.85;39.46892;-0.34102;69.4;NaN;;17.431;;0 / 28;13164;2021-10-27 16:52:50:367
0.686;9.481;0.351;9.773;-0.713;0.321;0.025;0.293;0.024;-0.003;0.005;0.006;290.0;-25.7;-26.2;16.6;147.3;4.3;-88.0;0.0;30.85;39.46892;-0.34102;69.4;NaN;;17.431;;0 / 28;13215;2021-10-27 16:52:50:418
0.722;9.495;0.342;9.773;-0.742;0.35;0.0;0.266;-0.018;-0.003;0.005;0.006;290.0;-25.9;-26.2;16.8;147.2;4.2;-88.0;0.0;29.35;39.46892;-0.34102;69.4;NaN;;17.431;;0 / 28;13265;2021-10-27 16:52:50:468
0.742;9.445;0.356;9.773;-0.761;0.369;0.029;0.334;0.022;-0.001;-0.021;0.002;290.0;-26.3;-26.3;16.6;147.2;4.5;-87.8;0.0;29.35;39.46892;-0.34102;69.4;NaN;;17.431;;0 / 28;13315;2021-10-27 16:52:50:518
0.684;9.512;0.347;9.773;-0.699;0.35;0.003;0.293;0.008;0.0;-0.005;0.002;290.0;-25.7;-26.3;16.3;148.6;4.2;-87.9;0.0;29.35;39.46892;-0.34102;69.4;NaN;;17.431;;0 / 28;13365;2021-10-27 16:52:50:568
0.734;9.514;0.359;9.773;-0.742;0.335;0.03;0.266;0.008;0.0;0.001;0.002;290.0;-25.9;-26.1;16.1;148.9;4.4;-88.2;0.0;29.35;39.46892;-0.34102;69.4;NaN;;17.431;;0 / 28;13414;2021-10-27 16:52:50:617
0.73;9.483;0.366;9.768;-0.761;0.378;0.005;0.306;-0.06;0.001;0.022;0.004;290.0;-26.0;-25.9;16.1;148.6;4.3;-87.8;0.0;29.35;39.46892;-0.34102;69.4;NaN;;17.431;;0 / 28;13464;2021-10-27 16:52:50:667
0.758;9.44;0.332;9.773;-0.747;0.354;0.006;0.306;0.009;-0.001;0.033;0.003;290.0;-26.1;-26.1;16.4;148.7;4.4;-87.9;0.0;29.35;39.46892;-0.34102;69.4;NaN;;17.431;;0 / 28;13515;2021-10-27 16:52:50:718
0.73;9.495;0.337;9.773;-0.757;0.311;0.02;0.32;0.025;-0.002;0.022;0.003;289.0;-25.7;-26.2;16.4;148.8;4.4;-88.0;0.0;32.33;39.46892;-0.34102;69.4;NaN;;17.431;;0 / 28;13565;2021-10-27 16:52:50:768
0.739;9.507;0.323;9.773;-0.757;0.321;0.008;0.279;0.039;0.001;0.017;0.003;289.0;-25.7;-26.1;16.7;147.4;4.4;-88.1;0.0;32.33;39.46892;-0.34102;69.4;NaN;;17.431;;0 / 28;13615;2021-10-27 16:52:50:818
0.696;9.483;0.33;9.773;-0.761;0.364;0.05;0.279;0.038;0.005;-0.004;0.001;289.0;-25.7;-26.2;16.6;147.4;4.3;-88.1;0.0;32.33;39.46892;-0.34102;69.4;NaN;;17.431;;0 / 28;13665;2021-10-27 16:52:50:868
0.703;9.478;0.351;9.773;-0.718;0.378;0.063;0.306;-0.006;0.004;-0.015;-0.003;289.0;-26.1;-25.9;16.5;147.1;4.2;-87.8;0.0;32.33;39.46892;-0.34102;69.4;NaN;;17.431;;0 / 28;13714;2021-10-27 16:52:50:917
0.72;9.526;0.337;9.778;-0.713;0.306;0.033;0.279;0.032;0.004;-0.01;-0.007;289.0;-25.9;-26.2;16.5;147.3;4.3;-88.1;0.0;32.33;39.46892;-0.34102;69.4;NaN;;17.431;;0 / 28;13765;2021-10-27 16:52:50:968
0.732;9.43;0.349;9.768;-0.776;0.383;-0.012;0.348;-0.024;0.004;-0.01;-0.007;289.0;-26.3;-26.2;16.2;148.6;4.2;-87.9;0.0;32.33;39.46892;-0.34102;69.4;NaN;;17.431;;0 / 28;13815;2021-10-27 16:52:51:018
0.713;9.481;0.335;9.778;-0.685;0.35;0.055;0.293;-0.011;0.004;-0.01;-0.007;289.0;-26.3;-26.4;16.4;148.8;4.6;-87.9;0.0;32.33;39.46892;-0.34102;69.4;NaN;;17.431;;0 / 28;13865;2021-10-27 16:52:51:068
0.72;9.519;0.32;9.773;-0.718;0.364;0.04;0.293;-0.011;0.004;-0.01;-0.007;289.0;-26.0;-26.8;16.4;149.6;4.3;-88.0;0.0;31.1;39.46892;-0.34102;69.4;NaN;;17.431;;0 / 28;13915;2021-10-27 16:52:51:118
0.701;9.49;0.378;9.773;-0.704;0.378;0.052;0.28;-0.065;-0.001;0.02;-0.002;289.0;-25.8;-27.0;16.3;149.4;4.0;-87.9;0.0;31.1;39.46892;-0.34102;69.4;NaN;;17.431;;0 / 28;13964;2021-10-27 16:52:51:167
0.737;9.435;0.349;9.768;-0.79;0.311;-0.031;0.334;0.046;-0.002;0.01;-0.002;289.0;-25.4;-26.8;16.2;149.4;4.2;-87.8;0.0;31.1;39.46892;-0.34102;69.4;NaN;;17.431;;0 / 28;14015;2021-10-27 16:52:51:218
0.725;9.474;0.323;9.778;-0.713;0.306;0.009;0.28;0.06;-0.004;-0.02;-0.002;289.0;-25.6;-26.3;16.4;147.3;4.5;-88.0;0.0;31.1;39.46892;-0.34102;69.4;NaN;;17.431;;0 / 28;14065;2021-10-27 16:52:51:268
0.689;9.514;0.337;9.778;-0.699;0.335;0.009;0.28;0.02;-0.002;-0.029;0.001;289.0;-25.9;-26.3;16.4;148.7;4.2;-88.0;0.0;31.1;39.46892;-0.34102;69.4;NaN;;17.431;;0 / 28;14115;2021-10-27 16:52:51:318
0.72;9.454;0.327;9.773;-0.733;0.34;-0.002;0.321;-0.008;0.003;-0.014;0.005;289.0;-26.3;-26.4;16.8;147.3;4.5;-88.0;0.0;31.1;39.46892;-0.34102;69.4;NaN;;17.431;;0 / 28;14165;2021-10-27 16:52:51:368
0.732;9.497;0.368;9.778;-0.704;0.335;0.026;0.307;-0.01;0.003;-0.008;0.003;289.0;-26.5;-26.5;16.7;148.1;4.3;-87.9;0.0;29.24;39.46892;-0.34102;69.4;NaN;;17.431;;0 / 28;14215;2021-10-27 16:52:51:418
0.708;9.483;0.359;9.778;-0.699;0.335;0.055;0.266;0.016;0.003;0.015;0.002;289.0;-26.4;-26.1;16.7;147.3;4.2;-88.1;0.0;29.24;39.46892;-0.34102;69.4;NaN;;17.431;;0 / 28;14264;2021-10-27 16:52:51:467
0.765;9.497;0.311;9.773;-0.757;0.335;-0.04;0.28;-0.025;0.002;0.016;0.002;289.0;-26.0;-25.9;16.6;147.3;4.4;-88.0;0.0;29.24;39.46892;-0.34102;69.4;NaN;;17.431;;0 / 28;14315;2021-10-27 16:52:51:518
0.689;9.483;0.356;9.773;-0.699;0.35;0.056;0.293;0.03;0.0;0.0;0.0;289.0;-25.4;-26.0;16.7;147.3;4.3;-88.1;0.0;29.24;39.46892;-0.34102;69.4;NaN;;17.431;;0 / 28;14365;2021-10-27 16:52:51:568
0.725;9.476;0.356;9.773;-0.747;0.34;-0.012;0.293;-0.024;-0.004;-0.009;0.0;289.0;-25.3;-26.4;16.9;147.0;4.3;-87.6;0.0;29.24;39.46892;-0.34102;69.4;NaN;;17.431;;0 / 28;14415;2021-10-27 16:52:51:618
0.72;9.452;0.339;9.773;-0.757;0.364;0.016;0.293;-0.008;-0.006;-0.025;0.0;289.0;-25.3;-26.4;17.0;147.3;4.5;-88.0;0.0;29.24;39.46892;-0.34102;69.4;NaN;;17.431;;0 / 28;14465;2021-10-27 16:52:51:668
0.684;9.471;0.356;9.773;-0.718;0.378;0.044;0.293;0.007;-0.006;-0.025;0.0;289.0;-25.4;-26.5;16.7;148.0;4.2;-87.8;0.0;29.24;39.46892;-0.34102;69.4;NaN;;17.431;;0 / 28;14514;2021-10-27 16:52:51:717
0.703;9.493;0.347;9.773;-0.742;0.335;0.045;0.293;0.008;-0.009;-0.085;-0.002;289.0;-25.9;-26.5;16.8;148.1;4.0;-88.1;0.0;30.89;39.46892;-0.34102;69.4;NaN;;17.431;;0 / 28;14564;2021-10-27 16:52:51:767
0.739;9.49;0.332;9.773;-0.757;0.283;0.003;0.279;0.073;-0.009;-0.085;-0.002;289.0;-26.0;-26.2;16.6;147.3;4.3;-88.0;0.0;30.89;39.46892;-0.34102;69.4;NaN;;17.431;;0 / 28;14614;2021-10-27 16:52:51:817
0.701;9.469;0.347;9.773;-0.733;0.35;0.055;0.266;0.001;0.007;-0.021;-0.005;289.0;-25.9;-26.0;16.3;148.9;4.3;-88.2;0.0;30.89;39.46892;-0.34102;69.4;NaN;;17.431;;0 / 28;14665;2021-10-27 16:52:51:868
0.732;9.488;0.303;9.773;-0.733;0.335;0.026;0.28;0.039;0.011;0.052;-0.003;289.0;-25.8;-26.1;16.1;148.6;4.3;-87.9;0.0;30.89;39.46892;-0.34102;69.4;NaN;;17.431;;0 / 28;14715;2021-10-27 16:52:51:918
0.689;9.45;0.363;9.778;-0.661;0.35;0.037;0.28;0.022;0.011;0.066;-0.002;289.0;-26.0;-26.1;16.4;148.8;4.3;-88.1;0.0;30.89;39.46892;-0.34102;69.4;NaN;;17.431;;0 / 28;14765;2021-10-27 16:52:51:968
0.763;9.5;0.359;9.773;-0.742;0.364;-0.005;0.348;-0.047;0.007;0.066;-0.001;289.0;-26.0;-26.3;16.8;147.1;4.3;-87.8;0.0;30.89;39.46892;-0.34102;69.4;NaN;;17.431;;0 / 28;14815;2021-10-27 16:52:52:018
0.698;9.485;0.339;9.773;-0.757;0.306;-0.007;0.28;0.035;0.002;0.046;-0.001;289.0;-26.0;-26.4;16.7;147.3;4.4;-88.0;0.0;30.59;39.46892;-0.34102;69.4;NaN;;17.431;;0 / 28;14865;2021-10-27 16:52:52:068
0.696;9.445;0.315;9.778;-0.718;0.311;0.021;0.294;-0.005;-0.001;0.016;0.003;288.0;-25.8;-26.2;16.1;148.8;4.2;-88.2;0.0;30.59;39.46892;-0.34102;69.4;NaN;;17.431;;0 / 28;14914;2021-10-27 16:52:52:117
0.71;9.433;0.392;9.773;-0.704;0.378;0.05;0.321;-0.044;-0.003;0.013;0.003;288.0;-25.7;-26.0;16.0;148.5;4.1;-87.7;0.0;30.59;39.46892;-0.34102;69.4;NaN;;17.431;;0 / 28;14965;2021-10-27 16:52:52:168
0.713;9.524;0.268;9.778;-0.699;0.283;0.037;0.266;0.025;-0.003;0.015;0.002;288.0;-25.6;-25.9;16.4;148.8;4.2;-88.1;0.0;30.59;39.46892;-0.34102;69.4;NaN;;17.431;;0 / 28;15014;2021-10-27 16:52:52:217
0.677;9.483;0.361;9.773;-0.704;0.383;0.077;0.307;0.04;0.002;0.033;-0.005;288.0;-25.6;-26.1;16.5;147.3;4.0;-88.3;0.0;30.59;39.46892;-0.34102;69.4;NaN;;17.431;;0 / 28;15065;2021-10-27 16:52:52:268
0.744;9.497;0.337;9.768;-0.757;0.364;0.006;0.28;-0.001;0.002;0.033;-0.005;288.0;-25.8;-26.2;16.4;148.7;4.4;-87.9;0.0;30.59;39.46892;-0.34102;69.4;NaN;;17.431;;0 / 28;15115;2021-10-27 16:52:52:318
0.742;9.469;0.323;9.773;-0.761;0.335;0.004;0.281;0.024;0.005;0.005;-0.002;288.0;-25.5;-26.0;16.4;148.8;4.4;-88.0;0.0;30.62;39.46892;-0.34102;69.4;NaN;;17.431;;0 / 28;15164;2021-10-27 16:52:52:367
0.698;9.481;0.351;9.773;-0.733;0.364;0.045;0.267;-0.019;0.005;0.005;-0.002;287.0;-25.7;-26.2;16.1;148.7;4.3;-88.0;0.0;30.62;39.46892;-0.34102;69.4;NaN;;17.431;;0 / 28;15214;2021-10-27 16:52:52:417
0.67;9.481;0.332;9.773;-0.713;0.335;0.02;0.253;0.021;0.002;-0.003;0.005;287.0;-25.6;-26.4;16.2;148.7;4.2;-88.0;0.0;30.62;39.46892;-0.34102;69.4;NaN;;17.431;;0 / 28;15265;2021-10-27 16:52:52:468
0.725;9.478;0.282;9.773;-0.742;0.283;-0.006;0.294;0.061;0.001;0.0;0.003;287.0;-26.1;-26.3;16.5;147.5;4.3;-88.3;0.0;30.62;39.46892;-0.34102;69.4;NaN;;17.431;;0 / 28;15315;2021-10-27 16:52:52:518
0.658;9.502;0.339;9.778;-0.69;0.34;0.077;0.294;0.019;0.003;-0.003;0.002;287.0;-26.2;-26.3;16.8;147.3;4.0;-88.2;0.0;30.62;39.46892;-0.34102;69.4;NaN;;17.431;;0 / 28;15365;2021-10-27 16:52:52:568
0.751;9.466;0.284;9.773;-0.757;0.297;-0.006;0.294;0.044;0.004;0.003;-0.003;287.0;-25.8;-26.2;16.8;147.2;4.3;-88.0;0.0;30.62;39.46892;-0.34102;69.4;NaN;;17.431;;0 / 28;15415;2021-10-27 16:52:52:618
0.715;9.485;0.32;9.773;-0.761;0.326;-0.006;0.321;0.015;0.002;-0.028;-0.002;287.0;-25.6;-26.5;17.0;147.5;4.5;-88.2;0.0;30.62;39.46892;-0.34102;69.4;NaN;;17.431;;0 / 28;15465;2021-10-27 16:52:52:668
0.742;9.488;0.318;9.773;-0.733;0.335;-0.02;0.294;-0.054;-0.001;-0.048;-0.001;287.0;-25.1;-26.5;16.6;147.3;4.3;-88.0;0.0;32.07;39.46892;-0.34102;69.4;NaN;;17.431;;0 / 28;15515;2021-10-27 16:52:52:718
0.689;9.512;0.327;9.778;-0.699;0.321;0.078;0.294;0.0;-0.003;-0.045;0.005;287.0;-25.4;-26.5;16.5;148.1;3.9;-88.0;0.0;32.07;39.46892;-0.34102;69.4;NaN;;17.431;;0 / 28;15565;2021-10-27 16:52:52:768
0.737;9.485;0.335;9.773;-0.747;0.326;-0.001;0.308;0.0;-0.008;-0.049;0.002;287.0;-25.6;-26.3;16.5;147.3;4.5;-88.0;0.0;32.07;39.46892;-0.34102;69.4;NaN;;17.431;;0 / 28;15614;2021-10-27 16:52:52:817
0.739;9.481;0.366;9.773;-0.728;0.35;0.0;0.294;-0.024;-0.006;-0.025;0.001;287.0;-25.5;-26.5;16.6;148.2;4.3;-88.0;0.0;32.07;39.46892;-0.34102;69.4;NaN;;17.431;;0 / 28;15664;2021-10-27 16:52:52:867
0.713;9.517;0.263;9.778;-0.718;0.297;0.014;0.307;0.059;-0.004;-0.012;-0.001;287.0;-25.7;-26.5;16.5;147.4;4.2;-88.3;0.0;32.07;39.46892;-0.34102;69.4;NaN;;17.431;;0 / 28;15715;2021-10-27 16:52:52:918
0.686;9.514;0.337;9.778;-0.713;0.306;0.041;0.253;0.005;-0.003;-0.009;0.0;287.0;-25.6;-26.5;16.6;147.3;4.1;-88.2;0.0;32.07;39.46892;-0.34102;69.4;NaN;;17.431;;0 / 28;15765;2021-10-27 16:52:52:968
0.71;9.452;0.251;9.778;-0.733;0.254;-0.001;0.335;0.032;-0.003;-0.009;0.0;287.0;-25.4;-26.4;16.7;147.3;4.3;-88.0;0.0;30.21;39.46892;-0.34102;69.4;NaN;;17.431;;0 / 28;15815;2021-10-27 16:52:53:018
0.663;9.517;0.282;9.778;-0.699;0.335;0.052;0.226;0.041;0.01;0.005;-0.002;287.0;-25.8;-26.1;16.7;148.8;4.1;-88.2;0.0;30.21;39.46892;-0.34102;69.4;NaN;;17.431;;0 / 28;15865;2021-10-27 16:52:53:068
0.73;9.512;0.323;9.773;-0.757;0.311;0.051;0.281;0.038;0.007;0.002;-0.003;288.0;-25.7;-25.9;16.4;148.9;4.3;-88.2;0.0;30.21;39.46892;-0.34102;69.4;NaN;;17.431;;0 / 28;15915;2021-10-27 16:52:53:118
0.732;9.457;0.32;9.773;-0.761;0.35;-0.019;0.294;-0.047;0.005;0.008;-0.002;288.0;-25.6;-26.0;16.4;148.7;4.4;-88.0;0.0;30.21;39.46892;-0.34102;69.4;NaN;;17.431;;0 / 28;15964;2021-10-27 16:52:53:167
0.715;9.5;0.32;9.773;-0.771;0.321;-0.019;0.294;0.007;0.001;0.015;0.002;288.0;-25.5;-26.2;16.4;148.8;4.4;-88.0;0.0;30.21;39.46892;-0.34102;69.4;NaN;;17.431;;0 / 28;16015;2021-10-27 16:52:53:218
0.749;9.495;0.32;9.773;-0.757;0.306;0.01;0.294;0.021;-0.001;0.018;0.008;288.0;-25.6;-26.0;16.7;147.5;4.4;-88.3;0.0;30.21;39.46892;-0.34102;69.4;NaN;;17.431;;0 / 28;16065;2021-10-27 16:52:53:268
0.703;9.45;0.303;9.773;-0.742;0.311;0.04;0.28;0.021;0.0;0.013;0.006;288.0;-25.5;-25.9;16.3;147.3;4.2;-88.2;0.0;30.21;39.46892;-0.34102;69.4;NaN;;17.431;;0 / 28;16114;2021-10-27 16:52:53:317
0.732;9.478;0.315;9.778;-0.718;0.297;0.015;0.308;0.008;0.002;0.01;0.004;288.0;-25.7;-25.9;16.5;149.0;4.3;-88.3;0.0;32.59;39.46892;-0.34102;69.4;NaN;;17.431;;0 / 28;16164;2021-10-27 16:52:53:367
0.672;9.507;0.33;9.778;-0.699;0.306;0.056;0.267;0.02;0.004;0.011;0.001;285.0;-25.9;-25.9;16.4;148.8;4.1;-88.2;0.0;32.59;39.46892;-0.34102;69.4;NaN;;17.431;;0 / 28;16215;2021-10-27 16:52:53:418
0.689;9.521;0.33;9.778;-0.699;0.306;0.026;0.253;-0.009;0.005;0.016;-0.007;285.0;-26.0;-25.6;16.3;148.7;4.3;-88.0;0.0;32.59;39.46892;-0.34102;69.4;NaN;;17.431;;0 / 28;16265;2021-10-27 16:52:53:468
0.765;9.438;0.265;9.773;-0.776;0.268;0.009;0.335;0.017;0.004;0.028;-0.005;285.0;-25.7;-25.3;16.3;148.9;4.4;-88.2;0.0;32.59;39.46892;-0.34102;69.4;NaN;;17.431;;0 / 28;16315;2021-10-27 16:52:53:518
0.691;9.485;0.313;9.778;-0.704;0.311;0.061;0.267;0.016;0.004;0.028;-0.004;285.0;-25.4;-25.3;16.6;148.1;4.5;-88.3;0.0;32.59;39.46892;-0.34102;69.4;NaN;;17.431;;0 / 28;16364;2021-10-27 16:52:53:567
0.746;9.495;0.282;9.773;-0.757;0.268;-0.009;0.295;0.056;0.004;0.028;-0.004;285.0;-25.1;-25.8;16.7;147.5;4.4;-88.3;0.0;32.59;39.46892;-0.34102;69.4;NaN;;17.431;;0 / 28;16415;2021-10-27 16:52:53:618
0.706;9.474;0.299;9.773;-0.718;0.326;0.033;0.308;0.0;0.004;0.028;-0.004;285.0;-25.3;-26.2;16.8;147.3;4.2;-88.1;0.0;33.08;39.46892;-0.34102;69.4;NaN;;17.431;;0 / 28;16465;2021-10-27 16:52:53:668
0.715;9.474;0.327;9.778;-0.69;0.321;-0.008;0.295;0.011;0.001;-0.037;-0.001;285.0;-25.4;-26.2;16.7;147.2;4.1;-88.1;0.0;33.08;39.46892;-0.34102;69.4;NaN;;17.431;;0 / 28;16515;2021-10-27 16:52:53:718
0.73;9.519;0.294;9.773;-0.728;0.306;0.006;0.254;0.01;0.001;-0.037;-0.001;286.0;-25.5;-26.1;16.8;147.2;4.0;-88.1;0.0;33.08;39.46892;-0.34102;69.4;NaN;;17.431;;0 / 28;16565;2021-10-27 16:52:53:768
0.725;9.485;0.277;9.773;-0.733;0.297;0.02;0.281;-0.005;-0.002;-0.051;0.0;286.0;-25.7;-25.9;16.6;147.4;4.3;-88.3;0.0;33.08;39.46892;-0.34102;69.4;NaN;;17.431;;0 / 28;16615;2021-10-27 16:52:53:818
0.696;9.497;0.327;9.778;-0.69;0.297;0.035;0.281;0.008;-0.001;-0.022;0.001;286.0;-25.8;-25.9;16.5;147.5;4.3;-88.3;0.0;33.08;39.46892;-0.34102;69.4;NaN;;17.431;;0 / 28;16665;2021-10-27 16:52:53:868
0.67;9.459;0.284;9.778;-0.718;0.268;0.035;0.295;0.048;0.0;0.0;0.0;286.0;-25.6;-26.2;16.4;148.9;4.0;-88.3;0.0;33.08;39.46892;-0.34102;69.4;NaN;;17.431;;0 / 28;16714;2021-10-27 16:52:53:917
0.694;9.545;0.299;9.778;-0.685;0.278;0.049;0.227;0.019;0.007;0.026;0.0;286.0;-25.7;-26.2;16.4;149.0;4.2;-88.4;0.0;33.08;39.46892;-0.34102;69.4;NaN;;17.431;;0 / 28;16764;2021-10-27 16:52:53:967
0.696;9.464;0.217;9.778;-0.733;0.283;0.047;0.282;0.002;0.013;0.038;-0.005;286.0;-25.7;-26.0;16.6;147.5;4.3;-88.3;0.0;31.12;39.46892;-0.34102;69.4;NaN;;17.431;;0 / 28;16814;2021-10-27 16:52:54:017
0.718;9.505;0.287;9.778;-0.713;0.263;0.029;0.296;-0.018;0.011;0.029;-0.005;286.0;-25.8;-25.9;16.7;147.3;4.2;-88.1;0.0;31.12;39.46892;-0.34102;69.4;NaN;;17.431;;0 / 28;16864;2021-10-27 16:52:54:067
0.732;9.497;0.277;9.773;-0.771;0.297;0.027;0.255;0.007;0.008;0.021;-0.004;285.0;-25.7;-25.9;16.4;147.5;4.2;-88.4;0.0;31.12;39.46892;-0.34102;69.4;NaN;;17.431;;0 / 28;16915;2021-10-27 16:52:54:118
0.701;9.49;0.33;9.773;-0.733;0.311;-0.001;0.31;-0.049;0.002;0.009;0.0;285.0;-25.7;-25.9;16.6;147.4;4.3;-88.3;0.0;31.12;39.46892;-0.34102;69.4;NaN;;17.431;;0 / 28;16965;2021-10-27 16:52:54:168
0.725;9.514;0.268;9.773;-0.742;0.297;0.0;0.282;0.033;-0.003;0.003;0.004;285.0;-25.7;-26.0;16.5;147.4;4.3;-88.3;0.0;31.12;39.46892;-0.34102;69.4;NaN;;17.431;;0 / 28;17014;2021-10-27 16:52:54:217
0.675;9.488;0.284;9.778;-0.728;0.268;0.018;0.282;0.034;-0.002;0.003;0.008;285.0;-25.8;-26.1;16.5;147.6;4.3;-88.5;0.0;31.12;39.46892;-0.34102;69.4;NaN;;17.431;;0 / 28;17065;2021-10-27 16:52:54:268
0.706;9.502;0.299;9.773;-0.733;0.311;0.007;0.282;0.021;-0.002;0.003;0.008;285.0;-26.0;-26.2;16.7;147.3;4.2;-88.2;0.0;32.43;39.46892;-0.34102;69.4;NaN;;17.431;;0 / 28;17115;2021-10-27 16:52:54:318
0.742;9.49;0.303;9.778;-0.713;0.297;0.036;0.282;0.006;-0.002;0.003;0.008;285.0;-25.9;-26.2;17.0;147.6;4.2;-88.5;0.0;32.43;39.46892;-0.34102;69.4;NaN;;17.431;;0 / 28;17165;2021-10-27 16:52:54:368
0.718;9.49;0.311;9.778;-0.675;0.297;0.023;0.295;-0.009;-0.002;0.003;0.008;284.0;-25.6;-26.3;17.1;147.4;4.3;-88.2;0.0;32.43;39.46892;-0.34102;69.4;NaN;;17.431;;0 / 28;17214;2021-10-27 16:52:54:417
0.634;9.509;0.284;9.778;-0.67;0.283;0.074;0.268;0.017;0.0;-0.023;-0.005;284.0;-25.2;-26.3;17.2;147.4;4.1;-88.3;0.0;32.43;39.46892;-0.34102;69.4;NaN;;17.431;;0 / 28;17265;2021-10-27 16:52:54:468
0.713;9.464;0.256;9.778;-0.733;0.283;0.016;0.309;0.003;-0.003;-0.05;-0.012;284.0;-25.3;-26.6;16.8;148.3;4.1;-88.3;0.0;32.43;39.46892;-0.34102;69.4;NaN;;17.431;;0 / 28;17314;2021-10-27 16:52:54:517
0.677;9.483;0.258;9.778;-0.67;0.283;0.038;0.283;0.016;-0.004;-0.064;-0.01;284.0;-25.5;-26.5;16.6;148.4;4.3;-88.4;0.0;32.43;39.46892;-0.34102;69.4;NaN;;17.431;;0 / 28;17364;2021-10-27 16:52:54:567
0.677;9.488;0.268;9.778;-0.69;0.297;0.021;0.269;0.03;-0.003;-0.059;-0.009;284.0;-25.4;-26.5;16.6;148.2;4.0;-88.3;0.0;31.84;39.46892;-0.34102;69.4;NaN;;17.431;;0 / 28;17414;2021-10-27 16:52:54:617
0.679;9.502;0.311;9.773;-0.728;0.321;0.06;0.297;0.015;0.001;-0.028;-0.006;284.0;-25.1;-26.5;16.4;148.8;4.3;-88.1;0.0;31.84;39.46892;-0.34102;69.4;NaN;;17.431;;0 / 28;17464;2021-10-27 16:52:54:667
0.708;9.466;0.292;9.778;-0.704;0.297;0.03;0.31;0.014;0.002;0.013;-0.003;284.0;-25.6;-27.0;16.7;148.3;4.1;-88.3;0.0;31.84;39.46892;-0.34102;69.4;NaN;;17.431;;0 / 28;17515;2021-10-27 16:52:54:718
0.713;9.512;0.251;9.773;-0.742;0.311;0.001;0.311;0.027;0.001;0.006;-0.003;285.0;-25.7;-27.1;16.7;148.3;4.2;-88.3;0.0;31.84;39.46892;-0.34102;69.4;NaN;;17.431;;0 / 28;17565;2021-10-27 16:52:54:768
0.648;9.529;0.311;9.778;-0.69;0.321;0.055;0.27;0.0;0.0;0.0;0.0;285.0;-25.5;-26.6;17.0;148.2;4.0;-88.2;0.0;31.84;39.46892;-0.34102;69.4;NaN;;17.431;;0 / 28;17615;2021-10-27 16:52:54:818
0.66;9.505;0.292;9.778;-0.699;0.254;0.041;0.283;-0.013;-0.005;-0.009;-0.002;285.0;-25.3;-26.4;17.0;147.3;4.1;-88.3;0.0;31.84;39.46892;-0.34102;69.4;NaN;;17.431;;0 / 28;17665;2021-10-27 16:52:54:868
0.6;9.466;0.227;9.783;-0.632;0.239;0.067;0.297;0.083;-0.005;-0.009;-0.002;285.0;-25.1;-25.9;16.9;147.4;3.9;-88.5;0.0;31.84;39.46892;-0.34102;69.4;NaN;;17.431;;0 / 28;17714;2021-10-27 16:52:54:917
0.689;9.495;0.292;9.778;-0.69;0.268;0.105;0.352;0.042;0.001;-0.012;-0.017;285.0;-25.4;-25.9;16.8;147.5;3.6;-88.8;0.0;31.6;39.46892;-0.34102;69.4;NaN;;17.431;;0 / 28;17765;2021-10-27 16:52:54:968
0.789;9.524;0.253;9.773;-0.795;0.211;-0.082;0.284;0.04;0.003;-0.007;-0.018;285.0;-25.3;-26.1;16.7;147.9;4.6;-88.8;0.0;31.6;39.46892;-0.34102;69.4;NaN;;17.431;;0 / 28;17815;2021-10-27 16:52:55:018
0.696;9.495;0.179;9.778;-0.728;0.182;-0.111;0.326;0.047;0.016;-0.006;-0.004;285.0;-25.3;-26.1;17.0;147.8;4.8;-88.6;0.0;31.6;39.46892;-0.34102;69.4;NaN;;17.431;;0 / 28;17865;2021-10-27 16:52:55:068
0.622;9.529;0.282;9.783;-0.646;0.306;0.054;0.299;0.023;0.016;-0.006;0.01;283.0;-25.4;-26.5;16.9;147.6;4.2;-88.6;0.0;31.6;39.46892;-0.34102;69.4;NaN;;17.431;;0 / 28;17914;2021-10-27 16:52:55:117
0.636;9.469;0.268;9.783;-0.651;0.283;0.076;0.353;-0.012;0.013;-0.009;0.015;283.0;-25.7;-26.5;16.7;147.4;3.7;-88.5;0.0;31.6;39.46892;-0.34102;69.4;NaN;;17.431;;0 / 28;17964;2021-10-27 16:52:55:167
0.684;9.505;0.282;9.778;-0.69;0.297;0.035;0.298;-0.002;0.01;0.011;0.0;283.0;-25.7;-26.4;16.6;147.7;4.1;-88.8;0.0;31.6;39.46892;-0.34102;69.4;NaN;;17.431;;0 / 28;18015;2021-10-27 16:52:55:218
0.706;9.531;0.241;9.778;-0.723;0.225;0.005;0.23;0.023;0.003;0.03;-0.007;283.0;-25.7;-26.0;16.3;149.2;4.0;-88.8;0.0;32.32;39.46892;-0.34102;69.4;NaN;;17.431;;0 / 28;18065;2021-10-27 16:52:55:268
0.763;9.505;0.292;9.768;-0.781;0.335;-0.051;0.299;-0.031;0.002;0.052;-0.003;283.0;-25.8;-26.2;16.3;148.9;4.6;-88.0;0.0;32.32;39.46892;-0.34102;69.4;NaN;;17.431;;0 / 28;18115;2021-10-27 16:52:55:318
0.806;9.478;0.411;9.768;-0.785;0.421;-0.091;0.271;-0.121;-0.008;0.061;0.005;283.0;-25.5;-26.4;16.5;147.0;4.6;-87.5;0.0;32.32;39.46892;-0.34102;69.4;NaN;;17.431;;0 / 28;18165;2021-10-27 16:52:55:368
0.607;9.39;0.284;9.778;-0.666;0.297;0.009;0.393;-0.046;-0.024;0.02;0.024;274.0;-25.2;-26.4;16.7;147.2;4.5;-87.9;0.0;32.32;39.46892;-0.34102;69.4;NaN;;17.431;;0 / 28;18215;2021-10-27 16:52:55:418
0.665;9.457;0.193;9.783;-0.704;0.124;0.036;0.31;0.092;-0.025;-0.01;0.019;274.0;-25.0;-26.2;17.0;147.4;3.8;-88.6;0.0;32.32;39.46892;-0.34102;69.4;NaN;;17.431;;0 / 28;18265;2021-10-27 16:52:55:468
0.658;9.5;0.078;9.783;-0.685;0.072;0.055;0.269;0.222;-0.015;-0.026;0.009;274.0;-25.5;-25.7;16.8;148.1;3.6;-89.7;0.0;32.32;39.46892;-0.34102;69.4;NaN;;17.431;;0 / 28;18314;2021-10-27 16:52:55:517
0.6;9.514;0.098;9.787;-0.618;0.11;0.125;0.296;0.176;-0.015;-0.026;0.009;274.0;-25.6;-25.8;16.8;148.0;3.9;-89.3;0.0;32.32;39.46892;-0.34102;69.4;NaN;;17.431;;0 / 28;18365;2021-10-27 16:52:55:568
0.543;9.586;0.148;9.787;-0.546;0.211;0.175;0.256;0.071;-0.015;-0.026;0.009;274.0;-25.6;-25.9;16.5;149.1;3.3;-89.1;0.0;32.09;39.46892;-0.34102;69.4;NaN;;17.431;;0 / 28;18415;2021-10-27 16:52:55:618
0.61;9.485;0.21;9.787;-0.575;0.196;0.14;0.286;0.036;-0.015;-0.026;0.009;274.0;-25.3;-26.1;16.5;147.4;3.3;-88.9;0.0;32.09;39.46892;-0.34102;69.4;NaN;;17.431;;0 / 28;18465;2021-10-27 16:52:55:668
0.742;9.49;0.265;9.773;-0.785;0.254;-0.046;0.329;-0.012;0.039;0.053;-0.04;274.0;-25.4;-26.2;16.6;147.6;4.3;-88.5;0.0;32.09;39.46892;-0.34102;69.4;NaN;;17.431;;0 / 28;18515;2021-10-27 16:52:55:718
0.718;9.454;0.229;9.778;-0.747;0.239;-0.055;0.302;-0.001;0.018;0.043;-0.025;241.0;-25.5;-26.0;16.7;147.7;4.3;-88.6;0.0;32.09;39.46892;-0.34102;69.4;NaN;;17.431;;0 / 28;18565;2021-10-27 16:52:55:768
0.722;9.529;0.222;9.778;-0.699;0.239;-0.031;0.289;-0.023;-0.01;0.01;-0.008;241.0;-26.0;-25.9;16.6;147.6;4.2;-88.5;0.0;32.09;39.46892;-0.34102;69.4;NaN;;17.431;;0 / 28;18615;2021-10-27 16:52:55:818
0.706;9.524;0.155;9.778;-0.699;0.196;-0.022;0.288;0.05;-0.014;0.001;0.007;241.0;-25.9;-25.9;16.6;147.8;4.3;-88.8;0.0;32.09;39.46892;-0.34102;69.4;NaN;;17.431;;0 / 28;18665;2021-10-27 16:52:55:868
0.655;9.488;0.16;9.783;-0.661;0.168;0.046;0.328;0.054;-0.014;0.001;0.007;241.0;-25.9;-26.2;16.7;147.9;4.0;-89.1;0.0;32.62;39.46892;-0.34102;69.4;NaN;;17.431;;0 / 28;18714;2021-10-27 16:52:55:917
0.689;9.469;0.208;9.783;-0.704;0.168;0.01;0.314;0.052;-0.014;0.001;0.007;241.0;-25.7;-26.3;16.7;147.6;4.0;-88.7;0.0;32.62;39.46892;-0.34102;69.4;NaN;;17.431;;0 / 28;18765;2021-10-27 16:52:55:968
0.689;9.5;0.167;9.778;-0.733;0.139;-0.013;0.3;0.071;0.016;0.023;0.008;241.0;-25.8;-26.2;16.7;147.7;4.1;-88.8;0.0;32.62;39.46892;-0.34102;69.4;NaN;;17.431;;0 / 28;18814;2021-10-27 16:52:56:017
0.581;9.521;0.088;9.787;-0.618;0.057;0.043;0.327;0.105;0.019;0.015;0.004;241.0;-25.8;-26.0;16.7;148.1;4.3;-89.2;0.0;32.62;39.46892;-0.34102;69.4;NaN;;17.431;;0 / 28;18865;2021-10-27 16:52:56:068
0.6;9.485;0.143;9.787;-0.618;0.168;0.138;0.314;0.083;0.024;0.019;-0.005;191.0;-25.8;-26.0;16.7;147.7;3.6;-89.0;0.0;32.62;39.46892;-0.34102;69.4;NaN;;17.431;;0 / 28;18914;2021-10-27 16:52:56:117
0.603;9.471;0.076;9.778;-0.713;0.096;0.264;0.424;0.165;0.029;0.029;-0.024;191.0;-25.7;-26.3;16.8;147.7;3.6;-89.1;0.0;32.62;39.46892;-0.34102;69.4;NaN;;17.431;;0 / 28;18965;2021-10-27 16:52:56:168
0.71;9.49;0.301;9.783;-0.661;0.211;-0.028;0.344;-0.053;0.024;0.021;-0.035;191.0;-25.7;-26.2;17.0;148.7;5.4;-89.6;0.0;32.51;39.46892;-0.34102;69.4;NaN;;17.431;;0 / 28;19015;2021-10-27 16:52:56:218
0.686;9.521;0.311;9.783;-0.618;0.254;-0.105;0.235;-0.154;0.014;-0.016;-0.02;191.0;-25.6;-26.4;17.2;147.6;3.9;-88.8;0.0;32.51;39.46892;-0.34102;69.4;NaN;;17.431;;0 / 28;19065;2021-10-27 16:52:56:268
0.631;9.536;0.248;9.783;-0.642;0.168;-0.028;0.427;-0.022;0.006;-0.034;-0.012;191.0;-25.6;-25.9;17.0;147.7;3.8;-89.0;0.0;32.51;39.46892;-0.34102;69.4;NaN;;17.431;;0 / 28;19114;2021-10-27 16:52:56:317
-0.368;8.468;-3.698;9.783;-0.627;0.254;0.204;0.481;-0.078;-0.002;-0.047;0.008;191.0;-25.4;-26.2;17.1;147.7;2.8;-89.7;0.0;32.51;39.46892;-0.34102;69.4;NaN;;17.431;;0 / 28;19165;2021-10-27 16:52:56:368
1.357;9.88;0.775;9.73;-1.039;0.622;-0.479;0.004;-0.574;0.011;-0.026;-0.007;135.0;-25.4;-26.2;16.9;150.4;3.8;-92.7;0.0;32.51;39.46892;-0.34102;69.4;NaN;;17.431;;0 / 28;19215;2021-10-27 16:52:56:418
0.66;9.586;0.114;9.759;-0.776;0.599;0.094;0.29;0.237;0.015;-0.027;0.002;135.0;-25.1;-26.5;16.9;146.7;4.2;-87.2;0.0;32.51;39.46892;-0.34102;69.4;NaN;;17.431;;0 / 28;19265;2021-10-27 16:52:56:468
0.634;9.141;1.041;9.692;-0.814;1.255;-0.124;0.522;-1.061;0.018;-0.02;0.001;135.0;-25.1;-26.3;16.4;141.3;-2.0;-79.8;0.0;32.51;39.46892;-0.34102;69.4;NaN;;17.431;;0 / 28;19315;2021-10-27 16:52:56:518
1.024;9.167;-2.836;9.615;-0.804;-1.767;-0.601;0.508;4.122;0.018;-0.02;0.001;135.0;-25.0;-25.9;16.3;153.2;1.7;-95.5;0.0;53.44;39.46892;-0.34102;69.4;NaN;;17.431;;0 / 28;19365;2021-10-27 16:52:56:568
0.737;9.38;-0.069;9.787;-0.599;0.129;0.148;0.468;-0.207;0.018;-0.02;0.001;135.0;-25.2;-25.4;16.1;149.1;3.4;-89.0;0.0;53.44;39.46892;-0.34102;69.4;NaN;;17.431;;0 / 28;19415;2021-10-27 16:52:56:618
1.022;7.954;1.831;9.333;-1.872;2.365;-0.126;0.21;-0.313;0.018;-0.02;0.001;135.0;-25.1;-25.5;16.3;147.8;4.3;-88.1;0.0;53.44;39.46892;-0.34102;69.4;NaN;;17.431;;0 / 28;19465;2021-10-27 16:52:56:668
1.175;9.555;-0.241;9.792;-0.474;0.311;0.05;0.36;0.332;0.26;0.217;-0.004;135.0;-25.1;-25.3;16.3;142.7;11.0;-75.8;0.0;53.44;39.46892;-0.34102;69.4;NaN;;17.431;;0 / 28;19515;2021-10-27 16:52:56:718
0.794;9.615;0.289;9.768;-0.891;0.086;-0.136;0.223;-0.4;-0.014;0.009;0.013;147.0;-25.2;-25.3;16.6;146.0;4.3;-87.5;0.0;53.44;39.46892;-0.34102;69.4;NaN;;17.431;;0 / 28;19565;2021-10-27 16:52:56:768
1.907;10.103;1.503;9.524;-1.676;1.638;-0.837;0.209;-1.518;-0.05;-0.032;0.026;147.0;-25.5;-25.4;16.8;144.5;8.8;-81.0;0.0;53.44;39.46892;-0.34102;69.4;NaN;;17.431;;0 / 28;19615;2021-10-27 16:52:56:818
0.71;9.471;-0.349;9.768;0.704;-0.522;0.036;0.668;0.307;-0.099;-0.133;0.101;147.0;-25.8;-25.4;17.1;152.0;5.9;-93.8;0.0;56.15;39.46892;-0.34102;69.4;NaN;;17.431;;0 / 28;19665;2021-10-27 16:52:56:868
0.55;9.507;0.241;9.792;-0.378;0.335;0.618;0.326;0.495;-0.055;-0.082;0.05;147.0;-26.0;-25.3;16.9;145.4;2.2;-88.0;0.0;56.15;39.46892;-0.34102;69.4;NaN;;17.431;;0 / 28;19715;2021-10-27 16:52:56:918
0.756;9.605;0.753;9.797;-0.445;-0.201;0.319;0.842;-0.404;0.031;0.037;-0.033;147.0;-25.9;-25.0;17.0;147.8;2.6;-91.2;0.0;56.15;39.46892;-0.34102;69.4;NaN;;17.431;;0 / 28;19764;2021-10-27 16:52:56:967
-2.613;4.157;-4.241;7.661;3.936;-4.688;-0.883;-2.885;1.103;0.145;0.161;-0.122;147.0;-25.8;-25.0;16.7;150.4;6.0;-92.8;0.0;56.15;39.46892;-0.34102;69.4;NaN;;17.431;;0 / 28;19815;2021-10-27 16:52:57:018
2.831;11.455;-1.158;9.371;-2.332;-1.714;-3.334;-2.131;-1.057;0.045;0.028;0.025;147.0;-26.1;-25.2;16.7;139.5;1.8;-78.3;0.0;56.15;39.46892;-0.34102;69.4;NaN;;17.431;;0 / 28;19864;2021-10-27 16:52:57:067
-0.232;11.436;1.998;9.644;0.532;1.69;-0.477;-1.144;-1.133;0.303;0.103;0.241;121.0;-26.6;-25.9;16.8;139.1;-3.1;-80.1;0.0;56.15;39.46892;-0.34102;69.4;NaN;;17.431;;0 / 28;19915;2021-10-27 16:52:57:118
2.068;10.204;-0.327;9.668;-0.546;-1.547;0.306;1.094;1.099;0.222;0.076;0.191;121.0;-26.8;-26.4;16.5;164.6;1.1;-108.9;0.0;55.18;39.46892;-0.34102;69.4;NaN;;17.431;;0 / 28;19965;2021-10-27 16:52:57:168
-1.864;8.98;1.598;9.38;2.37;1.595;3.225;0.076;-1.887;0.222;0.076;0.191;121.0;-26.3;-26.8;16.0;146.2;0.0;-85.2;0.0;55.18;39.46892;-0.34102;69.4;NaN;;17.431;;0 / 28;20015;2021-10-27 16:52:57:218
1.606;11.836;0.677;9.687;-1.437;0.551;-0.615;-2.197;-0.744;0.222;0.076;0.191;121.0;-26.3;-27.0;15.4;146.2;-1.0;-86.2;0.0;55.18;39.46892;-0.34102;69.4;NaN;;17.431;;0 / 28;20065;2021-10-27 16:52:57:268
-0.538;14.084;-1.594;9.797;0.421;-0.287;0.987;-4.204;0.562;0.222;0.076;0.191;121.0;-25.6;-26.6;15.5;150.3;1.7;-88.2;0.0;55.18;39.46892;-0.34102;69.4;NaN;;17.431;;0 / 28;20115;2021-10-27 16:52:57:318
-0.028;10.402;4.002;9.275;0.072;3.179;1.677;-0.402;0.008;-0.077;0.185;-0.214;121.0;-25.7;-26.8;15.4;165.1;-1.5;-106.5;0.0;55.18;39.46892;-0.34102;69.4;NaN;;17.431;;0 / 28;20165;2021-10-27 16:52:57:368
0.1;7.274;0.44;9.792;-0.268;0.493;0.787;1.384;1.069;0.11;0.254;-0.209;349.0;-24.9;-27.7;15.8;152.0;-3.8;-95.8;0.0;55.18;39.46892;-0.34102;69.4;NaN;;17.431;;0 / 28;20214;2021-10-27 16:52:57:417
-0.763;6.987;-0.584;9.697;1.125;0.953;1.009;3.091;2.537;0.391;0.485;-0.372;349.0;-24.2;-28.9;15.2;159.7;8.5;-99.3;0.0;55.18;39.46892;-0.34102;69.4;NaN;;17.431;;0 / 28;20265;2021-10-27 16:52:57:468
-1.869;6.809;2.63;8.514;2.342;4.271;0.752;2.628;-1.156;0.151;0.312;-0.471;349.0;-23.1;-31.3;13.1;140.5;-13.8;-63.4;0.0;59.34;39.46892;-0.34102;69.4;NaN;;17.431;;0 / 28;20314;2021-10-27 16:52:57:517
-3.205;7.161;3.973;7.259;2.26;6.196;4.096;2.367;-2.266;-0.707;-0.119;-0.937;349.0;-22.6;-32.4;11.0;142.3;-8.2;-49.2;5.0;59.34;39.46892;-0.34102;69.4;NaN;;17.431;;0 / 28;20365;2021-10-27 16:52:57:568
1.914;9.064;3.308;9.553;0.67;2.126;-3.638;0.629;-3.053;-1.512;-0.72;-0.485;349.0;-22.7;-33.5;8.3;149.8;21.8;-54.2;5.0;59.34;39.46892;-0.34102;69.4;NaN;;17.431;;0 / 28;20415;2021-10-27 16:52:57:618
-2.496;8.325;4.5;7.757;1.504;5.808;1.491;1.328;-2.787;-1.392;-0.365;-0.573;349.0;-22.5;-33.7;6.5;156.2;-16.0;-77.4;5.0;59.34;39.46892;-0.34102;69.4;NaN;;17.431;;0 / 28;20464;2021-10-27 16:52:57:667
-2.501;8.65;5.093;8.231;1.748;5.033;0.57;0.767;-2.931;-1.225;-0.235;-0.353;349.0;-22.4;-34.6;4.4;154.7;-10.3;-58.6;5.0;59.34;39.46892;-0.34102;69.4;NaN;;17.431;;0 / 28;20515;2021-10-27 16:52:57:718
-2.24;7.054;5.967;7.068;2.006;6.493;1.406;2.484;-2.885;-1.224;-0.112;-0.332;1222.0;-21.9;-35.0;3.1;150.6;-17.5;-50.7;5.0;59.34;39.46892;-0.34102;69.4;NaN;;17.431;;0 / 28;20564;2021-10-27 16:52:57:767
-2.192;8.653;6.149;8.116;2.188;5.047;0.22;0.751;-2.801;-1.329;0.041;-0.567;1222.0;-21.4;-35.6;1.5;155.9;-7.8;-51.8;5.0;55.96;39.46892;-0.34102;69.4;NaN;;17.431;;0 / 28;20615;2021-10-27 16:52:57:818
-1.728;7.934;5.486;7.925;1.767;5.502;-0.147;1.077;-1.743;-1.161;-0.097;-0.325;1222.0;-21.6;-35.6;0.5;157.6;-10.4;-53.2;5.0;55.96;39.46892;-0.34102;69.4;NaN;;17.431;;0 / 28;20665;2021-10-27 16:52:57:868
-1.089;7.867;5.266;8.092;1.106;5.425;-1.077;0.606;-0.91;-0.998;-0.165;-0.17;1222.0;-21.6;-35.3;-0.7;160.7;-6.5;-56.2;5.0;55.96;39.46892;-0.34102;69.4;NaN;;17.431;;0 / 28;20715;2021-10-27 16:52:57:918
-1.481;7.831;5.368;7.958;1.456;5.545;-0.29;0.624;-0.638;-0.656;-0.18;0.089;1222.0;-21.8;-35.3;-1.0;160.0;-8.8;-55.8;5.0;55.96;39.46892;-0.34102;69.4;NaN;;17.431;;0 / 28;20765;2021-10-27 16:52:57:968
-1.534;7.82;5.57;7.93;1.446;5.588;-0.083;0.598;-0.705;-0.5;-0.102;0.151;1222.0;-21.9;-34.9;-1.2;159.0;-9.9;-54.3;5.0;55.96;39.46892;-0.34102;69.4;NaN;;17.431;;0 / 28;20814;2021-10-27 16:52:58:017
-1.543;7.963;5.141;8.126;1.566;5.262;-0.073;0.335;-0.178;-0.297;0.031;0.178;1222.0;-21.9;-35.1;-1.3;159.4;-8.6;-54.5;5.0;55.96;39.46892;-0.34102;69.4;NaN;;17.431;;0 / 28;20865;2021-10-27 16:52:58:068
-1.275;7.721;5.445;7.963;1.298;5.574;-0.234;0.489;-0.274;-0.245;0.068;0.135;1112.0;-22.1;-35.1;-1.6;161.0;-9.0;-55.4;5.0;55.96;39.46892;-0.34102;69.4;NaN;;17.431;;0 / 28;20914;2021-10-27 16:52:58:117
-1.393;7.8;5.309;7.997;1.46;5.488;-0.078;0.41;-0.113;-0.205;0.089;0.112;1112.0;-22.1;-35.5;-1.4;160.5;-8.6;-55.5;5.0;45.98;39.46892;-0.34102;69.4;NaN;;17.431;;0 / 28;20965;2021-10-27 16:52:58:168
-1.46;7.82;5.146;7.954;1.46;5.55;-0.084;0.314;-0.111;-0.158;0.091;0.102;1112.0;-22.7;-35.3;-1.4;161.2;-7.9;-57.7;5.0;45.98;39.46892;-0.34102;69.4;NaN;;17.431;;0 / 28;21015;2021-10-27 16:52:58:218
0.452;8.54;6.544;9.251;-1.302;2.988;-0.086;0.322;-0.065;-0.112;0.092;0.091;1112.0;-22.6;-35.3;-1.5;158.6;-9.2;-55.1;5.0;45.98;39.46892;-0.34102;69.4;NaN;;17.431;;0 / 28;21064;2021-10-27 16:52:58:267
-1.591;7.822;5.586;7.882;1.599;5.607;0.135;0.298;-0.409;-0.134;0.069;0.037;1112.0;-22.5;-34.9;-2.0;160.5;-9.4;-54.6;5.0;45.98;39.46892;-0.34102;69.4;NaN;;17.431;;0 / 28;21115;2021-10-27 16:52:58:318
-1.445;7.937;4.849;8.021;1.638;5.401;-0.001;0.122;0.6;-0.123;0.092;0.014;1112.0;-22.1;-34.7;-1.9;162.8;-9.1;-58.7;5.0;45.98;39.46892;-0.34102;69.4;NaN;;17.431;;0 / 28;21164;2021-10-27 16:52:58:367