sep=;
ACCELEROMETER X (m/s²);ACCELEROMETER Y (m/s²);ACCELEROMETER Z (m/s²);GRAVITY X (m/s²);GRAVITY Y (m/s²);GRAVITY Z (m/s²);LINEAR ACCELERATION X (m/s²);LINEAR ACCELERATION Y (m/s²);LINEAR ACCELERATION Z (m/s²);GYROSCOPE X (rad/s);GYROSCOPE Y (rad/s);GYROSCOPE Z (rad/s);LIGHT (lux);MAGNETIC FIELD X (μT);MAGNETIC FIELD Y (μT);MAGNETIC FIELD Z (μT);ORIENTATION Z (azimuth °);ORIENTATION X (pitch °);ORIENTATION Y (roll °);PROXIMITY (m);SOUND LEVEL (dB);LOCATION Latitude : ;LOCATION Longitude : ;LOCATION Altitude ( m);LOCATION Altitude-google ( m);LOCATION Speed ( Kmh);LOCATION Accuracy ( m);LOCATION ORIENTATION (°);Satellites in range;Time since start in ms ;YYYY-MO-DD HH-MI-SS_SSS
0.057;5.708;0.646;9.807;0.053;-0.134;-2.102;1.818;4.292;-0.704;0.477;0.1;988.0;26.2;-31.9;9.5;174.2;10.7;-74.4;0.0;45.04;39.46889;-0.34092;69.4;NaN;;15.541;;0 / 28;9;2021-10-27 17:44:33:082
-1.699;4.744;-1.151;8.581;1.341;-4.554;-0.427;3.406;7.384;1.027;-1.01;0.578;988.0;24.9;-30.4;15.0;167.6;-15.5;-79.3;0.0;45.04;39.46889;-0.34092;69.4;NaN;;15.541;;0 / 28;58;2021-10-27 17:44:33:131
-3.465;7.405;-8.889;5.076;4.41;-7.14;0.6;3.723;11.339;3.219;-1.701;-0.154;988.0;24.8;-28.0;18.6;134.0;-4.1;-141.2;0.0;58.52;39.46889;-0.34092;69.4;NaN;;15.541;;0 / 28;109;2021-10-27 17:44:33:182
-11.764;18.514;-2.273;7.949;5.444;-1.844;1.171;-2.149;-7.515;3.463;-1.091;-1.33;988.0;26.7;-24.4;21.8;161.7;-2.2;-64.7;0.0;58.52;39.46889;-0.34092;69.4;NaN;;15.541;;0 / 28;158;2021-10-27 17:44:33:231
-0.315;11.099;0.11;9.433;2.543;-0.876;-2.576;-1.115;0.999;2.472;0.077;-0.79;988.0;27.4;-23.0;22.6;129.6;5.6;-93.6;0.0;58.52;39.46889;-0.34092;69.4;NaN;;15.541;;0 / 28;208;2021-10-27 17:44:33:281
-3.245;9.847;-1.35;9.266;3.021;-1.077;-1.462;1.437;2.721;1.37;1.014;-0.69;988.0;28.0;-22.4;22.3;133.0;-12.2;-101.6;0.0;58.52;39.46889;-0.34092;69.4;NaN;;15.541;;0 / 28;258;2021-10-27 17:44:33:331
-3.25;12.217;0.947;9.673;1.537;-0.508;1.246;-3.472;-1.617;0.387;1.021;-0.038;988.0;27.5;-22.7;22.1;142.0;-17.7;-93.0;0.0;58.52;39.46889;-0.34092;69.4;NaN;;15.541;;0 / 28;309;2021-10-27 17:44:33:382
-1.182;6.96;0.047;9.716;0.843;-1.077;0.321;0.424;0.583;0.045;0.905;0.002;419.0;27.0;-23.2;21.9;135.2;-4.9;-96.3;0.0;58.52;39.46889;-0.34092;69.4;NaN;;15.541;;0 / 28;358;2021-10-27 17:44:33:431
-2.379;6.733;-0.203;9.232;3.29;-0.359;-0.414;2.953;0.222;0.083;0.669;-0.11;419.0;26.8;-23.9;22.3;139.8;-16.9;-97.5;0.0;67.23;39.46889;-0.34092;69.4;NaN;;15.541;;0 / 28;408;2021-10-27 17:44:33:481
9.789;-4.509;0.978;-4.554;-8.653;-0.781;-3.99;11.339;1.646;0.192;0.349;0.243;419.0;25.9;-25.3;21.6;148.2;-0.3;-77.0;0.0;67.23;39.46889;-0.34092;69.4;NaN;;15.541;;0 / 28;458;2021-10-27 17:44:33:531
-39.174;26.461;4.732;6.345;7.446;0.704;7.807;-16.391;-10.095;-0.925;0.412;1.073;419.0;25.0;-26.5;21.5;59.1;52.7;-75.1;0.0;67.23;39.46889;-0.34092;69.4;NaN;;15.541;;0 / 28;509;2021-10-27 17:44:33:582
5.273;14.239;-5.603;9.165;-2.274;-2.648;-4.947;-6.08;0.26;-1.069;0.603;0.615;419.0;23.4;-28.4;20.4;132.4;13.4;-106.1;0.0;67.23;39.46889;-0.34092;69.4;NaN;;15.541;;0 / 28;559;2021-10-27 17:44:33:632
2.635;11.173;2.343;9.084;-2.71;2.509;-3.741;-2.355;-0.701;-0.611;0.255;0.958;419.0;22.0;-29.6;20.0;144.4;15.5;-80.1;0.0;67.23;39.46889;-0.34092;69.4;NaN;;15.541;;0 / 28;609;2021-10-27 17:44:33:682
-6.242;5.648;-4.622;5.933;5.904;-5.109;-0.692;0.543;1.481;0.319;-0.071;0.375;419.0;19.9;-30.8;19.3;140.5;10.2;-95.1;0.0;67.23;39.46889;-0.34092;69.4;NaN;;15.541;;0 / 28;658;2021-10-27 17:44:33:731
2.29;9.725;3.353;9.237;-1.326;3.021;-2.817;0.077;-3.749;0.198;-0.294;0.91;39.0;18.9;-31.3;19.2;141.8;-5.7;-113.8;0.0;65.88;39.46889;-0.34092;69.4;NaN;;15.541;;0 / 28;709;2021-10-27 17:44:33:782
0.301;9.375;0.342;9.792;-0.397;0.397;0.075;0.438;-0.296;-0.312;0.428;0.289;39.0;18.2;-31.7;19.1;150.6;1.4;-86.3;0.0;65.88;39.46889;-0.34092;69.4;NaN;;15.541;;0 / 28;759;2021-10-27 17:44:33:832
0.627;9.366;0.378;9.783;-0.57;0.354;-0.346;0.574;-0.337;-0.046;0.407;0.01;39.0;18.1;-31.9;18.8;149.5;3.2;-87.5;0.0;65.88;39.46889;-0.34092;69.4;NaN;;15.541;;0 / 28;808;2021-10-27 17:44:33:881
1.019;9.72;0.787;9.74;-0.848;0.79;-0.121;0.06;-0.573;-0.476;0.554;0.244;39.0;18.0;-31.9;18.5;149.3;3.3;-87.9;0.0;65.88;39.46889;-0.34092;69.4;NaN;;15.541;;0 / 28;858;2021-10-27 17:44:33:931
0.844;9.416;0.354;9.764;-0.862;0.34;-0.195;0.419;0.078;-0.131;0.328;0.06;39.0;18.0;-31.6;18.3;150.6;5.4;-86.7;0.0;65.88;39.46889;-0.34092;69.4;NaN;;15.541;;0 / 28;909;2021-10-27 17:44:33:982
0.801;9.471;0.821;9.74;-0.771;0.843;-0.125;0.293;-0.274;-0.085;0.229;0.05;39.0;17.9;-31.7;18.5;151.7;4.5;-85.1;0.0;65.88;39.46889;-0.34092;69.4;NaN;;15.541;;0 / 28;958;2021-10-27 17:44:34:031
0.708;9.615;0.624;9.759;-0.723;0.651;0.003;0.276;-0.078;-0.06;0.134;0.04;206.0;18.2;-31.9;18.2;151.3;3.9;-86.2;0.0;65.88;39.46889;-0.34092;69.4;NaN;;15.541;;0 / 28;1008;2021-10-27 17:44:34:081
0.655;9.488;0.6;9.768;-0.632;0.632;-0.037;0.192;-0.031;-0.042;0.086;0.043;206.0;18.2;-32.2;17.9;151.5;3.7;-85.8;0.0;57.08;39.46889;-0.34092;69.4;NaN;;15.541;;0 / 28;1059;2021-10-27 17:44:34:132
0.689;9.536;0.811;9.749;-0.68;0.804;0.126;0.271;-0.183;-0.038;0.048;0.018;206.0;18.7;-32.3;17.6;151.7;3.3;-85.8;0.0;57.08;39.46889;-0.34092;69.4;NaN;;15.541;;0 / 28;1109;2021-10-27 17:44:34:182
0.646;9.5;0.983;9.735;-0.67;0.991;0.116;0.325;-0.276;-0.042;0.008;0.008;206.0;18.3;-32.5;17.4;154.5;3.9;-84.2;0.0;57.08;39.46889;-0.34092;69.4;NaN;;15.541;;0 / 28;1158;2021-10-27 17:44:34:231
0.694;9.38;0.959;9.72;-0.804;1.03;-0.092;0.363;-0.343;-0.07;0.014;-0.007;206.0;18.3;-32.5;17.4;153.6;4.8;-84.0;0.0;57.08;39.46889;-0.34092;69.4;NaN;;15.541;;0 / 28;1208;2021-10-27 17:44:34:281
0.751;9.471;0.847;9.73;-0.824;0.891;-0.122;0.278;-0.244;-0.107;0.023;-0.008;206.0;18.1;-32.5;17.6;152.0;4.7;-84.3;0.0;57.08;39.46889;-0.34092;69.4;NaN;;15.541;;0 / 28;1259;2021-10-27 17:44:34:332
0.634;9.526;0.859;9.749;-0.627;0.838;0.071;0.26;-0.071;-0.098;0.028;0.009;206.0;18.2;-32.5;17.6;151.5;4.3;-85.5;0.0;57.08;39.46889;-0.34092;69.4;NaN;;15.541;;0 / 28;1309;2021-10-27 17:44:34:382
0.576;9.483;0.622;9.768;-0.575;0.618;0.078;0.283;0.204;-0.072;0.024;0.016;209.0;17.8;-32.8;17.5;152.2;3.6;-86.0;0.0;36.77;39.46889;-0.34092;69.4;NaN;;15.541;;0 / 28;1359;2021-10-27 17:44:34:432
0.564;9.469;0.622;9.768;-0.646;0.603;0.119;0.282;0.203;-0.016;0.028;-0.002;209.0;17.8;-32.8;17.8;152.1;3.6;-86.3;0.0;36.77;39.46889;-0.34092;69.4;NaN;;15.541;;0 / 28;1408;2021-10-27 17:44:34:481
0.607;9.457;0.61;9.768;-0.622;0.594;0.086;0.339;0.196;0.039;0.003;-0.009;209.0;17.8;-33.1;17.9;152.2;3.4;-86.1;0.0;36.77;39.46889;-0.34092;69.4;NaN;;15.541;;0 / 28;1458;2021-10-27 17:44:34:531
0.823;9.442;0.696;9.744;-0.828;0.761;-0.07;0.314;0.074;0.067;0.005;-0.018;209.0;18.1;-33.2;18.1;152.0;3.9;-86.4;0.0;36.77;39.46889;-0.34092;69.4;NaN;;15.541;;0 / 28;1509;2021-10-27 17:44:34:582
0.88;9.497;0.574;9.744;-0.91;0.613;-0.183;0.289;0.107;0.049;0.025;-0.003;209.0;17.8;-33.2;18.2;151.6;5.3;-86.4;0.0;36.77;39.46889;-0.34092;69.4;NaN;;15.541;;0 / 28;1558;2021-10-27 17:44:34:631
0.888;9.531;0.607;9.749;-0.867;0.632;-0.194;0.263;0.122;0.042;0.01;0.021;209.0;17.6;-32.9;18.2;151.7;5.1;-86.3;0.0;36.77;39.46889;-0.34092;69.4;NaN;;15.541;;0 / 28;1608;2021-10-27 17:44:34:681
0.775;9.395;0.677;9.754;-0.761;0.675;-0.103;0.317;0.013;0.028;-0.028;0.076;209.0;17.8;-32.2;18.2;151.1;5.0;-85.8;0.0;36.77;39.46889;-0.34092;69.4;NaN;;15.541;;0 / 28;1658;2021-10-27 17:44:34:731
0.663;9.483;0.584;9.768;-0.675;0.56;0.072;0.315;0.133;0.025;-0.006;0.053;209.0;18.1;-32.3;18.5;151.3;4.1;-86.2;0.0;30.34;39.46889;-0.34092;69.4;NaN;;15.541;;0 / 28;1709;2021-10-27 17:44:34:782
0.545;9.507;0.524;9.778;-0.532;0.522;0.201;0.274;0.173;0.024;0.005;0.024;209.0;18.0;-32.5;18.0;151.8;3.3;-87.1;0.0;30.34;39.46889;-0.34092;69.4;NaN;;15.541;;0 / 28;1758;2021-10-27 17:44:34:831
0.505;9.485;0.569;9.773;-0.546;0.603;0.207;0.289;0.149;0.034;0.033;-0.033;209.0;18.0;-32.2;17.9;151.2;3.1;-86.9;0.0;30.34;39.46889;-0.34092;69.4;NaN;;15.541;;0 / 28;1808;2021-10-27 17:44:34:881
0.665;9.474;0.672;9.764;-0.69;0.646;0.004;0.307;-0.023;0.04;0.044;-0.064;209.0;17.7;-32.2;17.7;151.5;3.5;-86.1;0.0;30.34;39.46889;-0.34092;69.4;NaN;;15.541;;0 / 28;1858;2021-10-27 17:44:34:931
0.665;9.471;0.622;9.764;-0.675;0.646;0.024;0.296;0.02;0.028;0.004;-0.049;209.0;17.5;-31.7;17.9;151.4;4.1;-85.8;0.0;30.34;39.46889;-0.34092;69.4;NaN;;15.541;;0 / 28;1908;2021-10-27 17:44:34:981
0.581;9.466;0.641;9.764;-0.675;0.603;0.275;0.339;0.036;0.02;-0.002;-0.038;209.0;17.5;-31.9;18.0;151.5;3.6;-86.0;0.0;30.34;39.46889;-0.34092;69.4;NaN;;15.541;;0 / 28;1959;2021-10-27 17:44:35:032
0.624;9.452;0.816;9.754;-0.599;0.809;0.06;0.285;-0.151;-0.016;0.041;-0.021;210.0;18.1;-31.7;17.9;151.7;3.4;-85.6;0.0;34.08;39.46889;-0.34092;69.4;NaN;;15.541;;0 / 28;2008;2021-10-27 17:44:35:081
0.562;9.452;0.737;9.759;-0.603;0.776;0.052;0.339;-0.109;-0.038;0.054;-0.017;210.0;18.3;-31.9;17.6;151.7;3.6;-85.5;0.0;34.08;39.46889;-0.34092;69.4;NaN;;15.541;;0 / 28;2059;2021-10-27 17:44:35:132
0.627;9.505;0.78;9.754;-0.632;0.771;0.028;0.283;-0.121;-0.048;0.049;-0.015;210.0;18.4;-31.9;17.6;153.3;3.4;-85.3;0.0;34.08;39.46889;-0.34092;69.4;NaN;;15.541;;0 / 28;2108;2021-10-27 17:44:35:181
0.646;9.435;0.732;9.754;-0.646;0.785;0.008;0.296;-0.046;-0.051;0.004;-0.013;210.0;18.1;-32.3;17.3;153.2;3.8;-85.4;0.0;34.08;39.46889;-0.34092;69.4;NaN;;15.541;;0 / 28;2158;2021-10-27 17:44:35:231
0.658;9.474;0.73;9.759;-0.646;0.713;0.003;0.294;0.004;-0.038;-0.057;-0.01;210.0;17.9;-32.3;17.3;153.0;3.8;-85.7;0.0;34.08;39.46889;-0.34092;69.4;NaN;;15.541;;0 / 28;2209;2021-10-27 17:44:35:282
0.617;9.49;0.718;9.759;-0.646;0.713;-0.009;0.293;0.029;-0.031;-0.056;0.002;210.0;17.3;-32.3;17.6;152.3;3.5;-85.9;0.0;34.08;39.46889;-0.34092;69.4;NaN;;15.541;;0 / 28;2258;2021-10-27 17:44:35:331
0.643;9.469;0.732;9.759;-0.646;0.728;0.011;0.265;0.024;-0.008;-0.028;0.008;210.0;17.2;-32.2;18.2;151.3;3.9;-86.0;0.0;34.08;39.46889;-0.34092;69.4;NaN;;15.541;;0 / 28;2308;2021-10-27 17:44:35:381
0.655;9.426;0.751;9.759;-0.69;0.718;-0.014;0.319;0.051;0.002;0.015;0.009;211.0;17.3;-32.3;18.1;151.4;4.0;-85.8;0.0;32.75;39.46889;-0.34092;69.4;NaN;;15.541;;0 / 28;2358;2021-10-27 17:44:35:431
0.691;9.44;0.713;9.754;-0.675;0.742;-0.036;0.306;0.022;0.007;0.065;0.014;211.0;17.8;-32.0;17.8;151.5;4.0;-85.6;0.0;32.75;39.46889;-0.34092;69.4;NaN;;15.541;;0 / 28;2408;2021-10-27 17:44:35:481
0.689;9.507;0.73;9.754;-0.685;0.742;-0.029;0.292;0.022;0.004;0.054;0.015;211.0;17.9;-32.6;17.6;152.3;4.1;-85.6;0.0;32.75;39.46889;-0.34092;69.4;NaN;;15.541;;0 / 28;2459;2021-10-27 17:44:35:532
0.66;9.464;0.758;9.754;-0.69;0.757;-0.01;0.305;-0.005;0.002;0.041;0.017;211.0;17.7;-32.8;17.7;152.4;3.9;-85.6;0.0;32.75;39.46889;-0.34092;69.4;NaN;;15.541;;0 / 28;2509;2021-10-27 17:44:35:582
0.655;9.435;0.718;9.754;-0.646;0.757;0.024;0.331;0.037;-0.003;-0.008;0.012;211.0;17.4;-32.6;17.6;152.3;4.0;-85.5;0.0;32.75;39.46889;-0.34092;69.4;NaN;;15.541;;0 / 28;2558;2021-10-27 17:44:35:631
0.629;9.495;0.715;9.759;-0.656;0.713;0.014;0.249;0.01;-0.002;-0.009;0.007;211.0;17.6;-32.5;17.8;151.6;3.8;-85.7;0.0;32.75;39.46889;-0.34092;69.4;NaN;;15.541;;0 / 28;2608;2021-10-27 17:44:35:681
0.643;9.462;0.727;9.759;-0.661;0.718;0.016;0.317;0.038;-0.001;-0.004;0.004;211.0;17.5;-32.5;17.6;151.5;3.9;-85.8;0.0;30.39;39.46889;-0.34092;69.4;NaN;;15.541;;0 / 28;2658;2021-10-27 17:44:35:731
0.667;9.471;0.751;9.749;-0.675;0.804;-0.025;0.277;-0.044;0.0;0.0;0.0;213.0;17.9;-32.3;17.3;153.0;3.9;-85.6;0.0;30.39;39.46889;-0.34092;69.4;NaN;;15.541;;0 / 28;2709;2021-10-27 17:44:35:782
0.718;9.459;0.801;9.749;-0.718;0.79;-0.051;0.331;0.011;-0.002;-0.018;0.003;213.0;18.0;-32.8;17.1;153.8;4.2;-85.4;0.0;30.39;39.46889;-0.34092;69.4;NaN;;15.541;;0 / 28;2759;2021-10-27 17:44:35:832
0.682;9.493;0.694;9.759;-0.67;0.713;-0.02;0.276;-0.014;-0.01;-0.042;0.004;213.0;17.9;-33.1;17.2;153.8;4.2;-85.5;0.0;30.39;39.46889;-0.34092;69.4;NaN;;15.541;;0 / 28;2809;2021-10-27 17:44:35:882
0.655;9.521;0.727;9.754;-0.685;0.771;0.012;0.248;0.045;-0.014;-0.057;0.01;213.0;17.8;-33.1;17.9;152.2;3.9;-85.9;0.0;30.39;39.46889;-0.34092;69.4;NaN;;15.541;;0 / 28;2859;2021-10-27 17:44:35:932
0.691;9.428;0.768;9.749;-0.733;0.804;-0.008;0.315;-0.017;-0.014;-0.04;0.009;213.0;17.8;-32.9;18.1;152.3;4.1;-85.5;0.0;30.39;39.46889;-0.34092;69.4;NaN;;15.541;;0 / 28;2908;2021-10-27 17:44:35:981
0.706;9.469;0.706;9.754;-0.713;0.713;-0.002;0.301;0.056;-0.009;-0.012;0.008;213.0;17.7;-32.6;18.1;152.2;4.1;-85.8;0.0;30.05;39.46889;-0.34092;69.4;NaN;;15.541;;0 / 28;2959;2021-10-27 17:44:36:032
0.667;9.495;0.744;9.754;-0.704;0.733;0.027;0.273;0.058;-0.002;0.036;0.009;213.0;17.8;-32.6;17.9;152.2;4.3;-85.6;0.0;30.05;39.46889;-0.34092;69.4;NaN;;15.541;;0 / 28;3008;2021-10-27 17:44:36:081
0.667;9.474;0.708;9.764;-0.646;0.661;0.057;0.273;0.083;0.005;0.027;0.007;213.0;18.0;-32.5;18.2;152.3;4.0;-85.6;0.0;30.05;39.46889;-0.34092;69.4;NaN;;15.541;;0 / 28;3059;2021-10-27 17:44:36:132
0.689;9.49;0.701;9.754;-0.718;0.718;0.004;0.26;0.091;0.017;0.009;0.002;213.0;18.0;-32.5;18.1;151.5;3.9;-85.7;0.0;30.05;39.46889;-0.34092;69.4;NaN;;15.541;;0 / 28;3108;2021-10-27 17:44:36:181
0.706;9.495;0.677;9.759;-0.728;0.661;-0.01;0.301;0.043;0.017;0.009;0.002;213.0;17.8;-32.6;18.3;152.0;4.3;-86.1;0.0;30.05;39.46889;-0.34092;69.4;NaN;;15.541;;0 / 28;3159;2021-10-27 17:44:36:232
0.677;9.481;0.677;9.759;-0.69;0.661;-0.023;0.275;0.037;0.016;0.009;0.001;213.0;17.4;-32.6;18.2;152.1;4.3;-85.8;0.0;30.05;39.46889;-0.34092;69.4;NaN;;15.541;;0 / 28;3208;2021-10-27 17:44:36:281
0.682;9.474;0.677;9.759;-0.69;0.675;0.046;0.275;0.082;0.016;0.013;0.002;213.0;17.5;-32.5;18.3;152.1;3.9;-86.0;0.0;30.05;39.46889;-0.34092;69.4;NaN;;15.541;;0 / 28;3259;2021-10-27 17:44:36:332
0.639;9.44;0.574;9.764;-0.666;0.622;0.061;0.317;0.127;0.017;0.024;0.005;213.0;17.3;-32.5;18.6;152.0;4.0;-86.2;0.0;32.02;39.46889;-0.34092;69.4;NaN;;15.541;;0 / 28;3309;2021-10-27 17:44:36:382
0.679;9.462;0.607;9.759;-0.685;0.675;0.006;0.277;0.098;0.032;0.037;0.001;211.0;17.7;-32.5;18.5;150.5;4.2;-86.4;0.0;32.02;39.46889;-0.34092;69.4;NaN;;15.541;;0 / 28;3359;2021-10-27 17:44:36:432
0.722;9.512;0.507;9.764;-0.699;0.575;0.046;0.277;0.038;0.031;0.038;0.0;211.0;17.7;-32.6;18.6;150.5;4.2;-86.4;0.0;32.02;39.46889;-0.34092;69.4;NaN;;15.541;;0 / 28;3408;2021-10-27 17:44:36:481
0.698;9.476;0.584;9.764;-0.718;0.575;0.044;0.32;0.107;0.039;0.03;0.0;211.0;18.0;-32.2;18.6;149.6;4.3;-86.5;0.0;32.02;39.46889;-0.34092;69.4;NaN;;15.541;;0 / 28;3458;2021-10-27 17:44:36:531
0.677;9.457;0.605;9.759;-0.718;0.646;0.03;0.334;0.1;0.031;0.002;0.0;211.0;17.8;-32.3;18.7;149.7;3.9;-86.7;0.0;32.02;39.46889;-0.34092;69.4;NaN;;15.541;;0 / 28;3508;2021-10-27 17:44:36:581
0.639;9.464;0.629;9.773;-0.618;0.56;0.031;0.295;-0.012;0.022;-0.012;0.001;211.0;18.1;-31.6;18.5;149.7;3.6;-86.7;0.0;32.02;39.46889;-0.34092;69.4;NaN;;15.541;;0 / 28;3558;2021-10-27 17:44:36:631
0.739;9.514;0.409;9.768;-0.728;0.421;0.031;0.254;0.18;0.021;-0.009;-0.002;211.0;17.7;-31.9;18.3;150.8;4.0;-87.3;0.0;31.91;39.46889;-0.34092;69.4;NaN;;15.541;;0 / 28;3609;2021-10-27 17:44:36:682
0.832;9.464;0.579;9.754;-0.843;0.56;-0.024;0.255;0.142;0.028;-0.016;-0.002;211.0;17.9;-31.7;18.2;150.7;4.3;-87.1;0.0;31.91;39.46889;-0.34092;69.4;NaN;;15.541;;0 / 28;3659;2021-10-27 17:44:36:732
0.797;9.476;0.658;9.754;-0.776;0.661;-0.091;0.311;0.0;0.032;-0.049;0.002;203.0;17.8;-32.2;18.1;150.9;4.7;-86.5;0.0;31.91;39.46889;-0.34092;69.4;NaN;;15.541;;0 / 28;3708;2021-10-27 17:44:36:781
0.696;9.512;0.603;9.764;-0.67;0.646;-0.013;0.27;0.04;0.019;-0.065;0.013;203.0;18.0;-32.0;18.2;151.2;2.9;-86.9;0.0;31.91;39.46889;-0.34092;69.4;NaN;;15.541;;0 / 28;3758;2021-10-27 17:44:36:831
0.581;9.512;0.483;9.768;-0.661;0.575;-0.005;0.229;0.089;0.014;-0.069;0.019;203.0;17.8;-32.2;18.3;151.0;3.6;-87.0;0.0;31.91;39.46889;-0.34092;69.4;NaN;;15.541;;0 / 28;3808;2021-10-27 17:44:36:881
0.653;9.495;0.438;9.773;-0.646;0.464;0.066;0.338;0.087;0.014;-0.069;0.019;203.0;17.4;-32.2;18.0;150.9;4.3;-86.8;0.0;31.91;39.46889;-0.34092;69.4;NaN;;15.541;;0 / 28;3859;2021-10-27 17:44:36:932
0.636;9.505;0.564;9.773;-0.618;0.56;0.121;0.284;0.028;0.014;-0.069;0.019;203.0;17.3;-32.2;18.1;151.0;3.9;-86.8;0.0;31.91;39.46889;-0.34092;69.4;NaN;;15.541;;0 / 28;3908;2021-10-27 17:44:36:981
0.581;9.474;0.538;9.773;-0.603;0.56;0.168;0.352;0.012;0.014;-0.069;0.019;203.0;17.4;-31.9;18.0;151.2;3.5;-86.7;0.0;39.41;39.46889;-0.34092;69.4;NaN;;15.541;;0 / 28;3959;2021-10-27 17:44:37:032
0.718;9.49;0.677;9.754;-0.728;0.699;-0.012;0.299;-0.141;0.008;0.042;-0.023;176.0;17.5;-32.0;18.0;151.3;4.3;-86.0;0.0;39.41;39.46889;-0.34092;69.4;NaN;;15.541;;0 / 28;4008;2021-10-27 17:44:37:081
0.804;9.495;0.454;9.764;-0.8;0.436;-0.145;0.259;0.158;0.002;0.032;-0.016;176.0;17.6;-31.6;18.5;149.4;4.0;-87.2;0.0;39.41;39.46889;-0.34092;69.4;NaN;;15.541;;0 / 28;4059;2021-10-27 17:44:37:132
0.675;9.485;0.517;9.768;-0.69;0.493;-0.011;0.314;0.129;0.008;0.008;-0.002;176.0;17.9;-31.6;18.2;150.5;4.7;-87.4;0.0;39.41;39.46889;-0.34092;69.4;NaN;;15.541;;0 / 28;4108;2021-10-27 17:44:37:181
0.696;9.466;0.44;9.773;-0.69;0.45;0.036;0.314;0.139;0.007;-0.026;0.019;176.0;18.4;-31.4;18.6;148.5;4.0;-87.4;0.0;39.41;39.46889;-0.34092;69.4;NaN;;15.541;;0 / 28;4158;2021-10-27 17:44:37:231
0.698;9.457;0.426;9.768;-0.742;0.436;0.02;0.3;0.134;0.039;-0.072;0.012;176.0;18.4;-31.6;18.6;149.2;3.9;-87.6;0.0;39.41;39.46889;-0.34092;69.4;NaN;;15.541;;0 / 28;4209;2021-10-27 17:44:37:282
0.67;9.483;0.442;9.773;-0.713;0.431;0.052;0.287;0.116;0.039;-0.071;0.006;176.0;18.1;-31.6;18.8;149.3;4.3;-87.2;0.0;39.41;39.46889;-0.34092;69.4;NaN;;15.541;;0 / 28;4258;2021-10-27 17:44:37:331
0.701;9.469;0.294;9.778;-0.728;0.283;-0.014;0.302;0.141;0.041;-0.04;0.001;176.0;18.0;-31.7;19.1;149.0;4.4;-87.8;0.0;38.72;39.46889;-0.34092;69.4;NaN;;15.541;;0 / 28;4308;2021-10-27 17:44:37:381
0.679;9.485;0.404;9.773;-0.699;0.378;0.041;0.303;0.086;0.044;-0.005;0.001;167.0;18.0;-31.6;18.8;149.1;4.1;-87.8;0.0;38.72;39.46889;-0.34092;69.4;NaN;;15.541;;0 / 28;4359;2021-10-27 17:44:37:432
0.698;9.483;0.414;9.773;-0.704;0.436;0.055;0.263;0.087;0.046;0.006;0.001;167.0;17.9;-31.6;18.8;149.2;3.9;-87.8;0.0;38.72;39.46889;-0.34092;69.4;NaN;;15.541;;0 / 28;4408;2021-10-27 17:44:37:481
0.703;9.493;0.335;9.773;-0.699;0.35;0.028;0.278;0.089;0.046;0.006;0.001;167.0;17.6;-32.2;18.4;150.4;4.1;-87.9;0.0;38.72;39.46889;-0.34092;69.4;NaN;;15.541;;0 / 28;4458;2021-10-27 17:44:37:531
0.701;9.474;0.452;9.773;-0.685;0.45;0.055;0.333;0.082;0.046;0.006;0.001;167.0;17.8;-31.9;18.3;150.4;4.1;-88.0;0.0;38.72;39.46889;-0.34092;69.4;NaN;;15.541;;0 / 28;4508;2021-10-27 17:44:37:581
0.746;9.514;0.356;9.773;-0.728;0.378;-0.001;0.32;0.026;0.025;-0.013;-0.003;167.0;17.9;-32.0;18.7;149.2;4.3;-87.4;0.0;38.72;39.46889;-0.34092;69.4;NaN;;15.541;;0 / 28;4559;2021-10-27 17:44:37:632
0.749;9.49;0.371;9.768;-0.757;0.364;-0.028;0.307;0.123;0.017;-0.02;-0.001;167.0;17.8;-31.7;18.8;148.8;4.5;-88.3;0.0;30.81;39.46889;-0.34092;69.4;NaN;;15.541;;0 / 28;4609;2021-10-27 17:44:37:682
0.744;9.464;0.366;9.773;-0.747;0.35;-0.014;0.321;0.022;0.013;-0.014;0.004;167.0;17.9;-31.6;19.1;149.0;4.4;-88.0;0.0;30.81;39.46889;-0.34092;69.4;NaN;;15.541;;0 / 28;4658;2021-10-27 17:44:37:731
0.696;9.483;0.32;9.773;-0.742;0.335;0.034;0.293;0.027;0.017;0.002;0.011;162.0;17.8;-31.6;18.8;149.0;4.1;-88.0;0.0;30.81;39.46889;-0.34092;69.4;NaN;;15.541;;0 / 28;4708;2021-10-27 17:44:37:781
0.708;9.488;0.311;9.778;-0.718;0.311;0.011;0.293;0.057;0.017;0.016;0.007;162.0;17.8;-31.7;19.1;148.1;4.0;-88.2;0.0;30.81;39.46889;-0.34092;69.4;NaN;;15.541;;0 / 28;4759;2021-10-27 17:44:37:832
0.663;9.464;0.325;9.778;-0.661;0.311;0.066;0.307;0.095;0.021;0.015;0.004;162.0;17.8;-31.9;18.8;148.9;3.9;-88.3;0.0;30.81;39.46889;-0.34092;69.4;NaN;;15.541;;0 / 28;4808;2021-10-27 17:44:37:881
0.646;9.5;0.371;9.773;-0.699;0.364;0.079;0.294;0.03;0.018;0.021;-0.006;162.0;17.5;-32.2;18.9;149.1;3.9;-88.0;0.0;30.81;39.46889;-0.34092;69.4;NaN;;15.541;;0 / 28;4858;2021-10-27 17:44:37:931
0.677;9.497;0.414;9.773;-0.704;0.407;0.031;0.295;-0.033;0.014;0.033;-0.011;162.0;17.7;-32.3;18.8;149.1;4.1;-87.7;0.0;30.81;39.46889;-0.34092;69.4;NaN;;15.541;;0 / 28;4908;2021-10-27 17:44:37:981
0.703;9.478;0.423;9.768;-0.747;0.421;-0.003;0.295;-0.021;0.0;0.041;-0.009;162.0;17.5;-31.7;19.1;149.3;4.0;-87.4;0.0;29.4;39.46889;-0.34092;69.4;NaN;;15.541;;0 / 28;4958;2021-10-27 17:44:38:031
0.725;9.466;0.394;9.773;-0.718;0.383;-0.019;0.336;-0.031;-0.01;0.038;-0.004;156.0;17.5;-31.4;19.1;148.9;4.5;-88.0;0.0;29.4;39.46889;-0.34092;69.4;NaN;;15.541;;0 / 28;5009;2021-10-27 17:44:38:082
0.682;9.481;0.392;9.773;-0.718;0.354;0.008;0.336;0.019;-0.015;0.035;0.0;156.0;17.5;-31.4;19.2;148.4;3.9;-87.5;0.0;29.4;39.46889;-0.34092;69.4;NaN;;15.541;;0 / 28;5058;2021-10-27 17:44:38:131
0.739;9.488;0.292;9.778;-0.713;0.254;0.023;0.281;0.118;-0.015;0.035;0.0;156.0;17.7;-31.9;18.9;148.8;3.9;-88.5;0.0;29.4;39.46889;-0.34092;69.4;NaN;;15.541;;0 / 28;5109;2021-10-27 17:44:38:182
0.67;9.505;0.213;9.783;-0.675;0.211;-0.002;0.213;0.16;-0.015;0.035;0.0;156.0;18.1;-31.9;18.8;148.7;4.3;-88.5;0.0;29.4;39.46889;-0.34092;69.4;NaN;;15.541;;0 / 28;5158;2021-10-27 17:44:38:231
0.753;9.485;0.327;9.773;-0.757;0.335;-0.081;0.295;0.01;0.024;-0.019;0.003;156.0;17.8;-31.9;19.1;148.7;4.3;-88.8;0.0;29.4;39.46889;-0.34092;69.4;NaN;;15.541;;0 / 28;5208;2021-10-27 17:44:38:281
0.732;9.435;0.368;9.773;-0.747;0.369;-0.008;0.35;-0.021;0.027;-0.046;0.006;156.0;17.8;-31.4;19.1;148.1;4.4;-88.0;0.0;30.24;39.46889;-0.34092;69.4;NaN;;15.541;;0 / 28;5259;2021-10-27 17:44:38:332
0.739;9.44;0.418;9.773;-0.723;0.426;-0.03;0.35;-0.082;0.011;-0.04;0.013;156.0;17.9;-31.4;19.1;148.2;4.4;-87.8;0.0;30.24;39.46889;-0.34092;69.4;NaN;;15.541;;0 / 28;5308;2021-10-27 17:44:38:381
0.665;9.519;0.277;9.778;-0.69;0.297;0.017;0.267;-0.057;-0.002;-0.022;0.014;158.0;18.0;-31.4;19.1;149.2;4.5;-87.4;0.0;30.24;39.46889;-0.34092;69.4;NaN;;15.541;;0 / 28;5359;2021-10-27 17:44:38:432
0.718;9.541;0.347;9.773;-0.713;0.378;0.008;0.199;0.017;-0.009;0.008;0.008;158.0;17.8;-31.7;19.3;148.8;4.0;-88.6;0.0;30.24;39.46889;-0.34092;69.4;NaN;;15.541;;0 / 28;5409;2021-10-27 17:44:38:482
0.658;9.445;0.303;9.778;-0.651;0.326;0.064;0.294;0.047;-0.005;0.021;0.002;158.0;17.4;-31.9;19.2;149.1;3.8;-88.1;0.0;30.24;39.46889;-0.34092;69.4;NaN;;15.541;;0 / 28;5458;2021-10-27 17:44:38:531
0.756;9.462;0.313;9.773;-0.776;0.326;0.004;0.294;-0.006;0.002;0.033;-0.012;158.0;17.5;-31.6;19.0;148.9;4.2;-88.2;0.0;30.24;39.46889;-0.34092;69.4;NaN;;15.541;;0 / 28;5509;2021-10-27 17:44:38:582
0.663;9.481;0.347;9.778;-0.69;0.364;0.014;0.295;-0.007;0.006;0.036;-0.006;158.0;17.8;-31.7;19.0;148.1;4.2;-88.0;0.0;30.24;39.46889;-0.34092;69.4;NaN;;15.541;;0 / 28;5558;2021-10-27 17:44:38:631
0.725;9.49;0.363;9.773;-0.713;0.364;0.051;0.281;-0.035;0.002;0.018;-0.005;158.0;18.0;-31.7;18.7;149.0;4.1;-88.0;0.0;30.03;39.46889;-0.34092;69.4;NaN;;15.541;;0 / 28;5608;2021-10-27 17:44:38:681
0.72;9.49;0.363;9.773;-0.771;0.306;-0.045;0.254;-0.008;-0.001;-0.019;-0.004;158.0;18.1;-32.2;18.4;150.2;4.5;-88.2;0.0;30.03;39.46889;-0.34092;69.4;NaN;;15.541;;0 / 28;5658;2021-10-27 17:44:38:731
0.789;9.445;0.38;9.768;-0.804;0.354;-0.058;0.336;-0.006;-0.006;-0.044;0.0;165.0;17.8;-32.5;18.6;149.0;4.5;-87.7;0.0;30.03;39.46889;-0.34092;69.4;NaN;;15.541;;0 / 28;5709;2021-10-27 17:44:38:782
0.727;9.485;0.416;9.773;-0.704;0.45;0.0;0.335;-0.084;-0.006;-0.044;0.0;165.0;17.4;-31.9;18.5;150.5;4.5;-87.4;0.0;30.03;39.46889;-0.34092;69.4;NaN;;15.541;;0 / 28;5758;2021-10-27 17:44:38:831
0.777;9.505;0.426;9.768;-0.742;0.436;-0.033;0.266;-0.061;-0.006;-0.044;0.0;165.0;17.3;-31.7;18.8;149.1;4.5;-87.7;0.0;30.03;39.46889;-0.34092;69.4;NaN;;15.541;;0 / 28;5809;2021-10-27 17:44:38:882
0.72;9.514;0.39;9.773;-0.728;0.378;0.028;0.279;-0.037;-0.028;-0.016;0.013;165.0;17.5;-31.3;18.8;148.2;4.3;-87.8;0.0;30.03;39.46889;-0.34092;69.4;NaN;;15.541;;0 / 28;5858;2021-10-27 17:44:38:931
0.799;9.469;0.461;9.764;-0.785;0.45;-0.035;0.319;-0.089;-0.027;0.002;0.011;165.0;17.5;-31.6;19.1;149.2;4.6;-87.3;0.0;30.44;39.46889;-0.34092;69.4;NaN;;15.541;;0 / 28;5908;2021-10-27 17:44:38:981
0.775;9.49;0.38;9.768;-0.804;0.378;-0.059;0.291;-0.024;-0.02;0.057;0.01;165.0;17.6;-31.7;19.1;149.0;4.8;-87.5;0.0;30.44;39.46889;-0.34092;69.4;NaN;;15.541;;0 / 28;5958;2021-10-27 17:44:39:031
0.725;9.514;0.368;9.773;-0.713;0.378;0.041;0.317;0.056;-0.013;0.061;0.012;177.0;17.4;-32.0;19.4;149.0;4.6;-87.7;0.0;30.44;39.46889;-0.34092;69.4;NaN;;15.541;;0 / 28;6008;2021-10-27 17:44:39:081
0.682;9.49;0.366;9.773;-0.704;0.364;0.086;0.276;-0.006;-0.01;0.057;0.012;177.0;17.7;-32.5;18.8;149.9;4.1;-87.9;0.0;30.44;39.46889;-0.34092;69.4;NaN;;15.541;;0 / 28;6058;2021-10-27 17:44:39:131
0.67;9.481;0.354;9.778;-0.69;0.364;0.087;0.289;0.066;0.002;0.031;0.0;177.0;17.6;-32.3;18.7;149.1;4.0;-87.9;0.0;30.44;39.46889;-0.34092;69.4;NaN;;15.541;;0 / 28;6108;2021-10-27 17:44:39:181
0.708;9.478;0.39;9.773;-0.675;0.407;0.068;0.304;0.008;0.008;0.018;-0.007;177.0;17.6;-32.6;18.2;151.3;4.0;-87.8;0.0;30.44;39.46889;-0.34092;69.4;NaN;;15.541;;0 / 28;6158;2021-10-27 17:44:39:231
0.696;9.502;0.414;9.773;-0.718;0.421;0.063;0.263;0.006;0.005;-0.011;-0.025;177.0;17.5;-32.8;18.5;151.4;4.1;-87.6;0.0;30.44;39.46889;-0.34092;69.4;NaN;;15.541;;0 / 28;6209;2021-10-27 17:44:39:282
0.72;9.502;0.409;9.768;-0.742;0.421;0.024;0.291;-0.037;0.003;-0.023;-0.023;177.0;17.5;-32.2;18.7;149.2;4.3;-87.5;0.0;29.58;39.46889;-0.34092;69.4;NaN;;15.541;;0 / 28;6259;2021-10-27 17:44:39:332
0.71;9.485;0.438;9.773;-0.718;0.393;0.017;0.265;-0.009;-0.006;-0.015;-0.01;177.0;17.7;-31.9;19.0;149.2;4.3;-87.5;0.0;29.58;39.46889;-0.34092;69.4;NaN;;15.541;;0 / 28;6308;2021-10-27 17:44:39:381
0.715;9.485;0.447;9.768;-0.733;0.45;0.042;0.292;-0.006;-0.011;0.001;-0.003;179.0;17.8;-31.3;19.0;149.1;4.3;-87.7;0.0;29.58;39.46889;-0.34092;69.4;NaN;;15.541;;0 / 28;6358;2021-10-27 17:44:39:431
0.672;9.471;0.296;9.773;-0.67;0.393;0.07;0.292;0.068;-0.011;0.001;-0.003;179.0;18.0;-31.3;19.2;148.3;4.1;-87.8;0.0;29.58;39.46889;-0.34092;69.4;NaN;;15.541;;0 / 28;6409;2021-10-27 17:44:39:482
0.677;9.474;0.332;9.778;-0.699;0.321;0.069;0.305;0.03;-0.004;0.023;-0.001;179.0;18.1;-31.9;19.3;149.0;4.1;-88.1;0.0;29.58;39.46889;-0.34092;69.4;NaN;;15.541;;0 / 28;6459;2021-10-27 17:44:39:532
0.713;9.483;0.375;9.773;-0.718;0.364;0.025;0.305;0.056;-0.001;0.023;-0.003;179.0;18.2;-31.6;19.2;149.1;4.1;-87.7;0.0;29.58;39.46889;-0.34092;69.4;NaN;;15.541;;0 / 28;6508;2021-10-27 17:44:39:581
0.706;9.476;0.344;9.773;-0.728;0.378;-0.006;0.36;0.091;0.016;-0.021;-0.01;179.0;18.3;-31.9;19.0;148.9;4.2;-88.3;0.0;29.22;39.46889;-0.34092;69.4;NaN;;15.541;;0 / 28;6559;2021-10-27 17:44:39:632
0.684;9.512;0.327;9.778;-0.713;0.306;0.044;0.279;0.081;0.016;-0.034;-0.008;179.0;18.1;-31.9;19.0;149.2;3.9;-87.8;0.0;29.22;39.46889;-0.34092;69.4;NaN;;15.541;;0 / 28;6608;2021-10-27 17:44:39:681
0.701;9.509;0.282;9.778;-0.713;0.292;0.042;0.239;0.073;0.015;-0.036;-0.007;179.0;18.1;-31.7;19.7;147.5;4.2;-88.3;0.0;29.22;39.46889;-0.34092;69.4;NaN;;15.541;;0 / 28;6659;2021-10-27 17:44:39:732
0.706;9.495;0.411;9.768;-0.742;0.436;0.0;0.321;-0.087;0.013;-0.026;-0.001;181.0;17.8;-31.7;19.7;147.8;4.3;-87.5;0.0;29.22;39.46889;-0.34092;69.4;NaN;;15.541;;0 / 28;6709;2021-10-27 17:44:39:782
0.734;9.464;0.409;9.768;-0.757;0.393;-0.012;0.321;0.044;0.008;-0.003;0.009;181.0;18.0;-31.7;19.5;147.7;4.2;-88.0;0.0;29.22;39.46889;-0.34092;69.4;NaN;;15.541;;0 / 28;6758;2021-10-27 17:44:39:831
0.809;9.474;0.349;9.764;-0.828;0.35;-0.103;0.28;-0.026;0.0;0.026;0.02;181.0;17.8;-32.0;19.0;149.0;4.8;-87.4;0.0;29.22;39.46889;-0.34092;69.4;NaN;;15.541;;0 / 28;6809;2021-10-27 17:44:39:882
0.725;9.481;0.361;9.768;-0.781;0.364;0.005;0.293;0.005;-0.004;0.02;0.026;181.0;17.8;-31.7;19.1;148.9;4.6;-87.9;0.0;29.79;39.46889;-0.34092;69.4;NaN;;15.541;;0 / 28;6858;2021-10-27 17:44:39:931
0.713;9.483;0.337;9.778;-0.69;0.35;0.087;0.333;0.02;0.0;0.018;0.022;181.0;17.6;-31.7;19.1;149.1;3.9;-88.0;0.0;29.79;39.46889;-0.34092;69.4;NaN;;15.541;;0 / 28;6909;2021-10-27 17:44:39:982
0.686;9.476;0.296;9.778;-0.704;0.283;0.025;0.291;0.115;0.009;0.004;0.011;181.0;17.7;-31.7;19.4;147.5;4.2;-88.3;0.0;29.79;39.46889;-0.34092;69.4;NaN;;15.541;;0 / 28;6958;2021-10-27 17:44:40:031
0.689;9.512;0.303;9.778;-0.699;0.297;0.069;0.278;0.079;0.009;0.004;0.011;181.0;17.7;-31.6;19.6;148.9;4.1;-88.2;0.0;29.79;39.46889;-0.34092;69.4;NaN;;15.541;;0 / 28;7008;2021-10-27 17:44:40:081
0.658;9.497;0.313;9.778;-0.675;0.297;0.104;0.292;0.083;0.009;0.004;0.011;181.0;17.8;-31.7;19.7;147.6;3.9;-88.3;0.0;29.79;39.46889;-0.34092;69.4;NaN;;15.541;;0 / 28;7059;2021-10-27 17:44:40:132
0.739;9.488;0.299;9.773;-0.704;0.364;0.068;0.32;-0.009;0.028;0.021;-0.023;181.0;17.2;-31.7;19.5;149.0;3.9;-88.3;0.0;29.79;39.46889;-0.34092;69.4;NaN;;15.541;;0 / 28;7109;2021-10-27 17:44:40:182
0.665;9.512;0.349;9.773;-0.718;0.35;0.043;0.294;0.062;0.022;0.044;-0.018;181.0;17.2;-31.6;19.1;148.9;4.1;-88.3;0.0;29.79;39.46889;-0.34092;69.4;NaN;;15.541;;0 / 28;7158;2021-10-27 17:44:40:231
0.684;9.519;0.351;9.773;-0.699;0.35;0.035;0.309;-0.011;0.007;0.058;-0.009;181.0;17.6;-31.3;18.8;148.1;4.3;-88.0;0.0;30.18;39.46889;-0.34092;69.4;NaN;;15.541;;0 / 28;7208;2021-10-27 17:44:40:281
0.703;9.464;0.303;9.773;-0.733;0.311;0.018;0.295;0.004;0.0;0.047;-0.005;181.0;17.9;-31.1;19.2;148.2;4.1;-87.9;0.0;30.18;39.46889;-0.34092;69.4;NaN;;15.541;;0 / 28;7258;2021-10-27 17:44:40:331
0.689;9.45;0.361;9.778;-0.704;0.35;0.044;0.309;-0.022;-0.004;0.007;-0.001;181.0;18.4;-31.3;19.7;146.7;4.2;-88.1;0.0;30.18;39.46889;-0.34092;69.4;NaN;;15.541;;0 / 28;7309;2021-10-27 17:44:40:382
0.66;9.495;0.26;9.783;-0.675;0.268;0.016;0.309;0.061;-0.003;-0.014;-0.003;176.0;18.0;-31.7;19.7;147.5;3.9;-88.4;0.0;30.18;39.46889;-0.34092;69.4;NaN;;15.541;;0 / 28;7358;2021-10-27 17:44:40:431
0.694;9.469;0.315;9.778;-0.675;0.34;0.055;0.336;0.006;0.001;-0.052;-0.004;176.0;18.1;-31.7;19.5;147.6;3.9;-88.3;0.0;30.18;39.46889;-0.34092;69.4;NaN;;15.541;;0 / 28;7409;2021-10-27 17:44:40:482
0.619;9.476;0.28;9.778;-0.675;0.283;0.078;0.323;0.054;0.008;-0.035;-0.009;176.0;17.8;-31.7;18.8;148.9;4.0;-88.3;0.0;30.18;39.46889;-0.34092;69.4;NaN;;15.541;;0 / 28;7459;2021-10-27 17:44:40:532
0.72;9.488;0.28;9.773;-0.742;0.254;-0.022;0.269;0.033;0.014;-0.028;-0.012;176.0;17.8;-31.7;19.0;148.9;3.9;-88.3;0.0;29.77;39.46889;-0.34092;69.4;NaN;;15.541;;0 / 28;7508;2021-10-27 17:44:40:581
0.684;9.505;0.294;9.778;-0.67;0.335;-0.012;0.283;0.028;0.01;-0.023;-0.009;176.0;17.7;-31.7;18.7;149.1;3.9;-88.0;0.0;29.77;39.46889;-0.34092;69.4;NaN;;15.541;;0 / 28;7558;2021-10-27 17:44:40:631
0.677;9.495;0.323;9.773;-0.718;0.34;0.04;0.297;-0.032;0.004;-0.05;-0.004;176.0;17.8;-31.7;18.6;149.1;3.9;-88.0;0.0;29.77;39.46889;-0.34092;69.4;NaN;;15.541;;0 / 28;7609;2021-10-27 17:44:40:682
0.713;9.493;0.303;9.778;-0.713;0.297;0.015;0.297;-0.005;0.004;-0.05;-0.004;176.0;17.5;-31.7;19.0;148.1;4.2;-88.1;0.0;29.77;39.46889;-0.34092;69.4;NaN;;15.541;;0 / 28;7658;2021-10-27 17:44:40:731
0.703;9.507;0.363;9.773;-0.713;0.364;-0.035;0.283;-0.054;0.004;-0.05;-0.004;171.0;17.5;-31.7;19.2;149.0;4.1;-88.0;0.0;29.77;39.46889;-0.34092;69.4;NaN;;15.541;;0 / 28;7709;2021-10-27 17:44:40:782
0.665;9.5;0.359;9.778;-0.69;0.335;0.078;0.296;-0.018;-0.014;0.013;0.006;171.0;17.6;-31.9;19.9;147.8;3.8;-87.8;0.0;29.77;39.46889;-0.34092;69.4;NaN;;15.541;;0 / 28;7759;2021-10-27 17:44:40:832
0.725;9.471;0.318;9.773;-0.733;0.354;-0.002;0.31;-0.013;-0.007;0.062;0.007;171.0;17.5;-31.7;20.0;147.6;4.3;-88.1;0.0;29.77;39.46889;-0.34092;69.4;NaN;;15.541;;0 / 28;7809;2021-10-27 17:44:40:882
0.679;9.442;0.39;9.773;-0.704;0.364;0.027;0.309;-0.02;-0.004;0.094;0.007;171.0;17.6;-31.7;19.8;147.6;4.4;-88.0;0.0;29.91;39.46889;-0.34092;69.4;NaN;;15.541;;0 / 28;7859;2021-10-27 17:44:40:932
0.631;9.521;0.318;9.778;-0.632;0.378;0.083;0.309;0.01;-0.002;0.086;0.005;171.0;18.0;-31.9;19.7;147.7;4.1;-87.9;0.0;29.91;39.46889;-0.34092;69.4;NaN;;15.541;;0 / 28;7908;2021-10-27 17:44:40:981
0.744;9.512;0.301;9.778;-0.699;0.297;0.069;0.282;0.026;-0.002;0.076;0.004;171.0;17.8;-31.9;19.4;148.9;4.1;-88.3;0.0;29.91;39.46889;-0.34092;69.4;NaN;;15.541;;0 / 28;7959;2021-10-27 17:44:41:032
0.708;9.485;0.33;9.773;-0.699;0.35;0.025;0.309;0.014;0.002;0.03;-0.006;168.0;18.0;-31.7;19.0;149.0;4.1;-88.0;0.0;29.91;39.46889;-0.34092;69.4;NaN;;15.541;;0 / 28;8008;2021-10-27 17:44:41:081
0.67;9.493;0.351;9.778;-0.675;0.393;0.034;0.296;0.014;0.0;-0.014;-0.01;168.0;17.5;-31.9;18.8;149.2;3.8;-87.9;0.0;29.91;39.46889;-0.34092;69.4;NaN;;15.541;;0 / 28;8058;2021-10-27 17:44:41:131
0.701;9.49;0.371;9.773;-0.728;0.407;0.005;0.282;-0.027;-0.005;-0.065;-0.006;168.0;17.6;-32.0;18.6;149.0;4.3;-87.8;0.0;29.91;39.46889;-0.34092;69.4;NaN;;15.541;;0 / 28;8109;2021-10-27 17:44:41:182
0.746;9.49;0.39;9.768;-0.785;0.364;-0.064;0.282;-0.026;-0.007;-0.069;-0.003;168.0;17.7;-32.2;18.9;148.9;4.6;-87.9;0.0;29.97;39.46889;-0.34092;69.4;NaN;;15.541;;0 / 28;8159;2021-10-27 17:44:41:232
0.675;9.505;0.404;9.773;-0.685;0.378;0.009;0.268;-0.035;-0.014;-0.052;0.013;168.0;18.0;-31.9;18.8;149.1;4.2;-87.7;0.0;29.97;39.46889;-0.34092;69.4;NaN;;15.541;;0 / 28;8208;2021-10-27 17:44:41:281
0.715;9.478;0.332;9.778;-0.704;0.34;0.016;0.308;-0.003;-0.017;-0.043;0.014;168.0;17.8;-31.6;18.5;148.2;4.2;-87.9;0.0;29.97;39.46889;-0.34092;69.4;NaN;;15.541;;0 / 28;8259;2021-10-27 17:44:41:332
0.715;9.514;0.306;9.778;-0.718;0.311;0.036;0.267;0.057;-0.015;-0.04;0.013;168.0;17.6;-31.6;18.5;149.6;3.9;-88.1;0.0;29.97;39.46889;-0.34092;69.4;NaN;;15.541;;0 / 28;8308;2021-10-27 17:44:41:381
0.619;9.488;0.294;9.783;-0.632;0.297;0.066;0.294;0.073;-0.001;-0.035;0.0;163.0;17.2;-31.4;18.5;149.5;3.9;-88.3;0.0;29.97;39.46889;-0.34092;69.4;NaN;;15.541;;0 / 28;8359;2021-10-27 17:44:41:432
0.684;9.459;0.337;9.778;-0.704;0.321;0.023;0.308;0.014;-0.001;-0.035;0.0;163.0;17.2;-31.6;18.8;149.2;3.9;-87.8;0.0;29.97;39.46889;-0.34092;69.4;NaN;;15.541;;0 / 28;8409;2021-10-27 17:44:41:482
0.727;9.517;0.323;9.773;-0.757;0.35;-0.008;0.281;0.022;0.013;0.006;-0.009;163.0;17.2;-31.7;19.1;148.9;4.3;-88.2;0.0;29.97;39.46889;-0.34092;69.4;NaN;;15.541;;0 / 28;8458;2021-10-27 17:44:41:531
0.706;9.445;0.38;9.773;-0.713;0.364;0.017;0.295;0.005;0.011;0.033;-0.005;163.0;17.1;-31.7;19.1;149.1;4.1;-87.9;0.0;31.09;39.46889;-0.34092;69.4;NaN;;15.541;;0 / 28;8509;2021-10-27 17:44:41:582
0.682;9.524;0.359;9.773;-0.713;0.35;0.028;0.295;-0.025;0.002;0.067;0.002;163.0;17.5;-32.0;19.1;149.1;4.0;-87.9;0.0;31.09;39.46889;-0.34092;69.4;NaN;;15.541;;0 / 28;8559;2021-10-27 17:44:41:632
0.698;9.49;0.327;9.773;-0.713;0.35;0.029;0.281;0.019;-0.003;0.058;0.004;163.0;18.0;-31.7;19.0;149.0;4.2;-88.0;0.0;31.09;39.46889;-0.34092;69.4;NaN;;15.541;;0 / 28;8608;2021-10-27 17:44:41:681
0.667;9.454;0.38;9.773;-0.713;0.421;0.029;0.309;-0.032;-0.008;0.013;0.0;163.0;18.1;-31.9;19.2;149.1;4.2;-87.8;0.0;31.09;39.46889;-0.34092;69.4;NaN;;15.541;;0 / 28;8659;2021-10-27 17:44:41:732
0.651;9.488;0.351;9.778;-0.69;0.364;0.056;0.308;0.079;-0.006;-0.021;-0.002;162.0;18.1;-31.7;19.1;149.0;4.2;-88.0;0.0;31.09;39.46889;-0.34092;69.4;NaN;;15.541;;0 / 28;8709;2021-10-27 17:44:41:782
0.665;9.488;0.327;9.778;-0.646;0.35;0.053;0.309;0.001;-0.006;-0.03;-0.005;162.0;17.8;-31.9;19.0;149.1;3.9;-88.0;0.0;31.09;39.46889;-0.34092;69.4;NaN;;15.541;;0 / 28;8758;2021-10-27 17:44:41:831
0.636;9.466;0.337;9.778;-0.661;0.335;0.077;0.309;0.042;-0.003;-0.026;-0.01;162.0;18.1;-32.0;18.8;149.0;4.0;-88.0;0.0;31.09;39.46889;-0.34092;69.4;NaN;;15.541;;0 / 28;8808;2021-10-27 17:44:41:881
0.663;9.488;0.344;9.778;-0.69;0.335;0.073;0.309;0.015;-0.002;-0.038;-0.011;162.0;18.4;-32.0;19.1;149.1;3.9;-88.0;0.0;29.65;39.46889;-0.34092;69.4;NaN;;15.541;;0 / 28;8859;2021-10-27 17:44:41:932
0.713;9.471;0.292;9.778;-0.718;0.326;-0.027;0.323;0.028;-0.003;-0.045;-0.008;162.0;18.4;-31.9;18.9;148.9;4.4;-88.0;0.0;29.65;39.46889;-0.34092;69.4;NaN;;15.541;;0 / 28;8909;2021-10-27 17:44:41:982
0.727;9.447;0.354;9.773;-0.718;0.35;-0.001;0.282;0.027;-0.003;-0.045;-0.008;162.0;18.2;-31.9;18.5;149.0;4.2;-88.0;0.0;29.65;39.46889;-0.34092;69.4;NaN;;15.541;;0 / 28;8959;2021-10-27 17:44:42:032
0.679;9.493;0.289;9.778;-0.718;0.311;0.017;0.309;0.066;-0.003;-0.045;-0.008;168.0;18.1;-31.9;18.5;150.3;4.0;-88.3;0.0;29.65;39.46889;-0.34092;69.4;NaN;;15.541;;0 / 28;9009;2021-10-27 17:44:42:082
0.691;9.505;0.327;9.778;-0.69;0.335;-0.007;0.323;-0.005;-0.003;-0.045;-0.008;168.0;17.8;-31.6;18.5;150.4;4.2;-88.0;0.0;29.65;39.46889;-0.34092;69.4;NaN;;15.541;;0 / 28;9058;2021-10-27 17:44:42:131
0.67;9.459;0.282;9.778;-0.675;0.297;0.024;0.295;0.059;0.004;-0.06;0.002;168.0;17.9;-31.7;18.8;148.9;4.1;-88.2;0.0;29.65;39.46889;-0.34092;69.4;NaN;;15.541;;0 / 28;9109;2021-10-27 17:44:42:182
0.665;9.497;0.351;9.773;-0.718;0.407;0.038;0.282;0.001;0.005;-0.025;0.0;168.0;17.8;-31.9;18.8;149.2;4.2;-87.6;0.0;30.32;39.46889;-0.34092;69.4;NaN;;15.541;;0 / 28;9159;2021-10-27 17:44:42:232
0.703;9.5;0.289;9.773;-0.713;0.321;0.01;0.282;0.04;0.004;0.004;-0.002;168.0;17.8;-31.9;18.8;148.8;4.2;-88.3;0.0;30.32;39.46889;-0.34092;69.4;NaN;;15.541;;0 / 28;9208;2021-10-27 17:44:42:281
0.73;9.493;0.332;9.773;-0.742;0.35;-0.018;0.309;-0.043;0.004;0.017;0.0;168.0;17.6;-32.0;18.8;149.1;4.4;-87.7;0.0;30.32;39.46889;-0.34092;69.4;NaN;;15.541;;0 / 28;9258;2021-10-27 17:44:42:331
0.677;9.45;0.363;9.773;-0.733;0.378;0.023;0.309;-0.03;0.0;0.041;0.002;168.0;17.5;-31.6;19.0;149.1;4.1;-87.9;0.0;30.32;39.46889;-0.34092;69.4;NaN;;15.541;;0 / 28;9308;2021-10-27 17:44:42:381
0.739;9.445;0.375;9.768;-0.757;0.393;-0.003;0.282;-0.028;-0.002;0.05;0.005;176.0;17.5;-32.2;19.1;149.1;4.4;-87.7;0.0;30.32;39.46889;-0.34092;69.4;NaN;;15.541;;0 / 28;9359;2021-10-27 17:44:42:432
0.682;9.488;0.347;9.778;-0.675;0.378;0.028;0.309;0.034;-0.007;0.063;0.009;176.0;17.3;-32.2;18.9;149.1;4.2;-87.9;0.0;30.32;39.46889;-0.34092;69.4;NaN;;15.541;;0 / 28;9409;2021-10-27 17:44:42:482
0.663;9.474;0.306;9.778;-0.675;0.321;0.044;0.308;0.01;-0.004;0.05;0.006;176.0;17.8;-32.3;18.5;149.1;4.1;-87.9;0.0;29.29;39.46889;-0.34092;69.4;NaN;;15.541;;0 / 28;9458;2021-10-27 17:44:42:531
0.696;9.507;0.308;9.778;-0.704;0.321;0.045;0.267;0.027;-0.002;0.035;0.003;176.0;17.8;-32.0;18.8;148.9;4.1;-88.2;0.0;29.29;39.46889;-0.34092;69.4;NaN;;15.541;;0 / 28;9509;2021-10-27 17:44:42:582
0.643;9.49;0.363;9.778;-0.646;0.35;0.045;0.295;0.04;0.007;0.015;-0.003;176.0;18.1;-31.9;18.8;149.1;3.8;-88.0;0.0;29.29;39.46889;-0.34092;69.4;NaN;;15.541;;0 / 28;9558;2021-10-27 17:44:42:631
0.691;9.493;0.366;9.773;-0.733;0.34;0.0;0.336;-0.005;0.007;0.015;-0.003;176.0;17.8;-32.2;18.6;149.1;4.1;-87.9;0.0;29.29;39.46889;-0.34092;69.4;NaN;;15.541;;0 / 28;9608;2021-10-27 17:44:42:681
0.718;9.505;0.375;9.773;-0.742;0.393;-0.029;0.268;0.033;0.007;0.015;-0.003;176.0;17.8;-31.9;18.8;148.9;4.4;-88.1;0.0;29.29;39.46889;-0.34092;69.4;NaN;;15.541;;0 / 28;9658;2021-10-27 17:44:42:731
0.713;9.497;0.426;9.773;-0.713;0.407;0.052;0.295;-0.037;0.001;-0.034;-0.003;178.0;17.7;-31.9;19.1;149.0;4.3;-88.0;0.0;29.29;39.46889;-0.34092;69.4;NaN;;15.541;;0 / 28;9709;2021-10-27 17:44:42:782
0.706;9.474;0.347;9.773;-0.728;0.35;0.039;0.295;-0.036;-0.005;-0.014;0.001;178.0;17.8;-31.9;19.0;149.0;4.3;-88.0;0.0;29.29;39.46889;-0.34092;69.4;NaN;;15.541;;0 / 28;9758;2021-10-27 17:44:42:831
0.679;9.478;0.371;9.778;-0.675;0.393;0.053;0.322;-0.017;-0.012;0.026;0.002;178.0;18.0;-32.0;19.1;149.0;4.2;-87.9;0.0;29.49;39.46889;-0.34092;69.4;NaN;;15.541;;0 / 28;9808;2021-10-27 17:44:42:881
0.651;9.502;0.327;9.783;-0.632;0.35;0.108;0.281;0.042;-0.011;0.03;0.001;178.0;17.7;-31.7;18.5;149.1;3.9;-87.9;0.0;29.49;39.46889;-0.34092;69.4;NaN;;15.541;;0 / 28;9858;2021-10-27 17:44:42:931
0.718;9.512;0.292;9.773;-0.757;0.35;0.035;0.281;0.073;-0.005;0.018;-0.008;178.0;17.8;-31.7;18.6;149.1;3.9;-88.0;0.0;29.49;39.46889;-0.34092;69.4;NaN;;15.541;;0 / 28;9909;2021-10-27 17:44:42:982
0.708;9.476;0.344;9.773;-0.728;0.335;-0.023;0.309;0.019;-0.001;0.004;-0.009;178.0;17.5;-31.9;18.5;150.4;4.3;-88.0;0.0;29.49;39.46889;-0.34092;69.4;NaN;;15.541;;0 / 28;9958;2021-10-27 17:44:43:031
0.706;9.483;0.335;9.778;-0.704;0.354;0.014;0.296;-0.01;0.001;-0.023;-0.005;181.0;17.2;-32.2;18.7;149.2;4.1;-87.6;0.0;29.49;39.46889;-0.34092;69.4;NaN;;15.541;;0 / 28;10008;2021-10-27 17:44:43:081
0.73;9.502;0.368;9.773;-0.733;0.364;0.014;0.309;0.016;0.002;-0.004;0.002;181.0;17.2;-31.9;18.8;149.0;4.1;-88.0;0.0;29.49;39.46889;-0.34092;69.4;NaN;;15.541;;0 / 28;10058;2021-10-27 17:44:43:131
0.737;9.471;0.342;9.773;-0.733;0.335;-0.021;0.309;0.043;0.002;0.023;0.012;181.0;17.5;-31.4;19.1;149.2;4.3;-87.5;0.0;29.72;39.46889;-0.34092;69.4;NaN;;15.541;;0 / 28;10108;2021-10-27 17:44:43:181
0.715;9.469;0.375;9.773;-0.718;0.335;-0.029;0.295;0.043;0.004;0.036;0.015;181.0;17.4;-31.6;19.0;149.0;4.2;-88.0;0.0;29.72;39.46889;-0.34092;69.4;NaN;;15.541;;0 / 28;10159;2021-10-27 17:44:43:232
0.698;9.493;0.373;9.773;-0.718;0.378;0.046;0.267;-0.025;0.004;0.042;0.012;181.0;17.6;-31.6;19.1;149.1;4.1;-87.8;0.0;29.72;39.46889;-0.34092;69.4;NaN;;15.541;;0 / 28;10208;2021-10-27 17:44:43:281
0.713;9.495;0.373;9.773;-0.733;0.354;0.009;0.294;-0.012;0.004;0.042;0.012;181.0;17.6;-31.6;18.6;149.1;4.3;-87.8;0.0;29.72;39.46889;-0.34092;69.4;NaN;;15.541;;0 / 28;10259;2021-10-27 17:44:43:332
0.763;9.452;0.387;9.768;-0.776;0.436;-0.028;0.335;-0.066;0.004;0.042;0.012;181.0;17.8;-31.6;18.5;148.1;4.6;-87.8;0.0;29.72;39.46889;-0.34092;69.4;NaN;;15.541;;0 / 28;10308;2021-10-27 17:44:43:381
0.73;9.471;0.382;9.773;-0.728;0.378;0.055;0.294;-0.007;0.004;0.042;0.012;182.0;18.1;-31.9;18.5;150.5;4.3;-87.8;0.0;29.72;39.46889;-0.34092;69.4;NaN;;15.541;;0 / 28;10359;2021-10-27 17:44:43:432
0.686;9.497;0.423;9.773;-0.699;0.407;0.03;0.293;-0.068;-0.018;-0.052;0.001;182.0;18.0;-31.6;18.6;149.2;4.2;-87.4;0.0;29.72;39.46889;-0.34092;69.4;NaN;;15.541;;0 / 28;10409;2021-10-27 17:44:43:482
0.701;9.521;0.363;9.773;-0.728;0.378;0.058;0.293;0.02;-0.017;-0.049;0.001;182.0;17.7;-31.6;18.8;149.1;4.0;-87.9;0.0;29.11;39.46889;-0.34092;69.4;NaN;;15.541;;0 / 28;10458;2021-10-27 17:44:43:531
0.689;9.457;0.421;9.768;-0.699;0.479;0.045;0.265;-0.029;-0.01;-0.03;-0.002;182.0;17.8;-31.1;18.9;148.4;4.1;-87.5;0.0;29.11;39.46889;-0.34092;69.4;NaN;;15.541;;0 / 28;10509;2021-10-27 17:44:43:582
0.696;9.495;0.428;9.773;-0.728;0.407;0.041;0.279;0.017;-0.01;-0.014;-0.007;182.0;17.8;-31.6;18.8;149.3;3.9;-87.5;0.0;29.11;39.46889;-0.34092;69.4;NaN;;15.541;;0 / 28;10558;2021-10-27 17:44:43:631
0.708;9.502;0.397;9.773;-0.718;0.378;0.038;0.293;0.006;-0.006;0.012;-0.007;182.0;18.3;-31.9;19.0;149.1;4.2;-87.8;0.0;29.11;39.46889;-0.34092;69.4;NaN;;15.541;;0 / 28;10608;2021-10-27 17:44:43:681
0.675;9.497;0.409;9.773;-0.718;0.393;0.035;0.361;-0.019;-0.006;0.017;-0.008;182.0;18.2;-31.9;18.9;149.2;4.1;-87.5;0.0;29.11;39.46889;-0.34092;69.4;NaN;;15.541;;0 / 28;10659;2021-10-27 17:44:43:732
0.686;9.435;0.375;9.773;-0.704;0.393;0.044;0.28;0.039;-0.005;0.001;-0.007;174.0;18.2;-31.9;18.9;149.3;3.8;-87.6;0.0;29.11;39.46889;-0.34092;69.4;NaN;;15.541;;0 / 28;10708;2021-10-27 17:44:43:781
0.675;9.469;0.342;9.778;-0.661;0.378;0.055;0.293;0.013;-0.004;-0.013;-0.007;174.0;17.5;-31.9;18.9;149.2;3.9;-87.8;0.0;41.43;39.46889;-0.34092;69.4;NaN;;15.541;;0 / 28;10759;2021-10-27 17:44:43:832
0.682;9.495;0.373;9.773;-0.699;0.378;-0.004;0.321;0.013;0.002;-0.002;-0.006;174.0;17.2;-32.3;19.1;149.0;4.5;-87.8;0.0;41.43;39.46889;-0.34092;69.4;NaN;;15.541;;0 / 28;10808;2021-10-27 17:44:43:881
0.686;9.478;0.306;9.778;-0.704;0.297;0.008;0.294;0.078;0.012;0.005;-0.004;174.0;17.3;-32.5;19.3;149.8;4.2;-88.1;0.0;41.43;39.46889;-0.34092;69.4;NaN;;15.541;;0 / 28;10859;2021-10-27 17:44:43:932
0.706;9.497;0.347;9.778;-0.699;0.335;0.02;0.294;0.094;0.025;0.049;-0.001;174.0;17.8;-32.5;19.3;149.8;3.9;-88.3;0.0;41.43;39.46889;-0.34092;69.4;NaN;;15.541;;0 / 28;10908;2021-10-27 17:44:43:981
0.689;9.483;0.32;9.778;-0.704;0.311;-0.008;0.349;0.058;0.025;0.049;-0.001;174.0;18.2;-31.9;19.1;148.9;4.1;-88.2;0.0;41.43;39.46889;-0.34092;69.4;NaN;;15.541;;0 / 28;10959;2021-10-27 17:44:44:032
0.701;9.462;0.371;9.778;-0.68;0.369;0.046;0.295;-0.012;0.029;0.033;0.001;167.0;18.4;-32.0;19.1;149.1;4.1;-87.9;0.0;41.43;39.46889;-0.34092;69.4;NaN;;15.541;;0 / 28;11008;2021-10-27 17:44:44:081
0.72;9.485;0.311;9.773;-0.733;0.311;0.032;0.282;0.049;0.017;-0.024;-0.001;167.0;18.4;-32.0;19.1;149.1;3.9;-87.9;0.0;41.43;39.46889;-0.34092;69.4;NaN;;15.541;;0 / 28;11058;2021-10-27 17:44:44:131
0.696;9.507;0.292;9.773;-0.757;0.306;0.005;0.269;0.04;0.009;-0.063;-0.002;167.0;18.6;-32.3;19.1;148.8;4.5;-88.3;0.0;32.84;39.46889;-0.34092;69.4;NaN;;15.541;;0 / 28;11109;2021-10-27 17:44:44:182
0.684;9.485;0.39;9.773;-0.69;0.393;0.032;0.283;-0.075;0.006;-0.062;-0.002;167.0;18.3;-32.2;19.0;149.0;4.3;-88.0;0.0;32.84;39.46889;-0.34092;69.4;NaN;;15.541;;0 / 28;11158;2021-10-27 17:44:44:231
0.682;9.481;0.287;9.778;-0.718;0.311;0.019;0.296;-0.008;-0.001;-0.043;0.001;167.0;18.4;-31.9;19.2;149.1;4.0;-88.0;0.0;32.84;39.46889;-0.34092;69.4;NaN;;15.541;;0 / 28;11209;2021-10-27 17:44:44:282
0.715;9.497;0.337;9.768;-0.761;0.378;0.019;0.31;-0.034;-0.007;-0.03;0.0;167.0;18.2;-31.6;18.8;149.0;4.2;-87.9;0.0;32.84;39.46889;-0.34092;69.4;NaN;;15.541;;0 / 28;11259;2021-10-27 17:44:44:332
0.675;9.488;0.373;9.778;-0.675;0.35;0.034;0.282;-0.067;-0.02;-0.008;0.0;167.0;18.4;-31.7;18.7;149.1;4.3;-87.7;0.0;32.84;39.46889;-0.34092;69.4;NaN;;15.541;;0 / 28;11308;2021-10-27 17:44:44:381
0.677;9.474;0.411;9.773;-0.718;0.407;0.02;0.296;-0.02;-0.015;-0.016;0.0;165.0;18.1;-31.7;18.5;150.6;4.2;-87.6;0.0;32.84;39.46889;-0.34092;69.4;NaN;;15.541;;0 / 28;11358;2021-10-27 17:44:44:431
0.73;9.49;0.371;9.773;-0.718;0.407;0.021;0.295;-0.055;-0.02;-0.026;0.002;165.0;17.8;-31.7;18.7;149.3;4.1;-87.4;0.0;29.6;39.46889;-0.34092;69.4;NaN;;15.541;;0 / 28;11409;2021-10-27 17:44:44:482
0.713;9.476;0.363;9.773;-0.728;0.35;0.023;0.281;0.01;-0.014;0.001;0.003;165.0;17.5;-31.4;18.7;149.0;4.3;-88.0;0.0;29.6;39.46889;-0.34092;69.4;NaN;;15.541;;0 / 28;11459;2021-10-27 17:44:44:532
0.617;9.45;0.351;9.778;-0.675;0.35;0.052;0.294;0.031;-0.009;0.028;0.004;165.0;17.5;-31.6;18.8;148.3;4.1;-87.8;0.0;29.6;39.46889;-0.34092;69.4;NaN;;15.541;;0 / 28;11508;2021-10-27 17:44:44:581
0.66;9.5;0.311;9.778;-0.699;0.321;0.066;0.267;0.048;-0.009;0.028;0.004;165.0;17.8;-31.6;18.9;149.0;4.1;-88.1;0.0;29.6;39.46889;-0.34092;69.4;NaN;;15.541;;0 / 28;11559;2021-10-27 17:44:44:632
0.701;9.49;0.387;9.773;-0.718;0.364;0.052;0.294;-0.008;-0.009;0.028;0.004;165.0;17.8;-31.6;18.9;149.0;4.0;-88.0;0.0;29.6;39.46889;-0.34092;69.4;NaN;;15.541;;0 / 28;11608;2021-10-27 17:44:44:681
0.667;9.464;0.402;9.773;-0.69;0.436;0.034;0.295;-0.052;-0.009;0.028;0.004;165.0;17.9;-31.7;18.7;149.1;3.9;-88.0;0.0;29.6;39.46889;-0.34092;69.4;NaN;;15.541;;0 / 28;11659;2021-10-27 17:44:44:732
0.71;9.466;0.356;9.778;-0.69;0.364;0.018;0.322;0.029;-0.009;0.028;0.004;169.0;17.9;-31.7;18.8;149.1;4.2;-87.8;0.0;29.6;39.46889;-0.34092;69.4;NaN;;15.541;;0 / 28;11708;2021-10-27 17:44:44:781
0.713;9.502;0.382;9.773;-0.713;0.35;-0.024;0.309;0.042;0.001;-0.01;-0.003;169.0;18.2;-31.7;18.8;149.0;4.2;-88.0;0.0;29.38;39.46889;-0.34092;69.4;NaN;;15.541;;0 / 28;11759;2021-10-27 17:44:44:832
0.682;9.497;0.378;9.773;-0.718;0.393;0.057;0.282;-0.04;-0.004;-0.016;-0.001;169.0;18.1;-31.7;18.4;150.5;4.2;-87.7;0.0;29.38;39.46889;-0.34092;69.4;NaN;;15.541;;0 / 28;11808;2021-10-27 17:44:44:881
0.694;9.488;0.382;9.773;-0.713;0.364;0.003;0.309;-0.025;-0.004;-0.032;-0.001;169.0;18.1;-31.9;18.5;150.5;4.3;-87.8;0.0;29.38;39.46889;-0.34092;69.4;NaN;;15.541;;0 / 28;11859;2021-10-27 17:44:44:932
0.691;9.474;0.38;9.773;-0.718;0.364;-0.024;0.336;0.004;-0.009;-0.043;0.0;169.0;18.1;-31.7;18.7;150.4;4.3;-87.8;0.0;29.38;39.46889;-0.34092;69.4;NaN;;15.541;;0 / 28;11909;2021-10-27 17:44:44:982
0.696;9.483;0.392;9.773;-0.718;0.335;0.032;0.295;-0.006;-0.008;-0.034;0.001;169.0;17.9;-31.6;19.2;149.1;4.1;-87.8;0.0;29.38;39.46889;-0.34092;69.4;NaN;;15.541;;0 / 28;11958;2021-10-27 17:44:45:031
0.696;9.507;0.382;9.773;-0.699;0.407;0.06;0.295;-0.004;-0.005;-0.015;0.001;170.0;17.9;-31.9;19.2;149.3;3.9;-87.5;0.0;29.38;39.46889;-0.34092;69.4;NaN;;15.541;;0 / 28;12009;2021-10-27 17:44:45:082
0.684;9.485;0.397;9.773;-0.728;0.393;-0.021;0.308;0.01;0.0;0.032;0.003;170.0;17.8;-32.0;18.8;149.0;4.2;-88.0;0.0;29.29;39.46889;-0.34092;69.4;NaN;;15.541;;0 / 28;12058;2021-10-27 17:44:45:131
0.742;9.471;0.411;9.768;-0.771;0.393;-0.007;0.294;-0.029;0.001;0.048;0.003;170.0;17.5;-32.2;18.7;149.1;4.2;-87.7;0.0;29.29;39.46889;-0.34092;69.4;NaN;;15.541;;0 / 28;12109;2021-10-27 17:44:45:182
0.71;9.497;0.347;9.773;-0.728;0.35;-0.006;0.281;-0.001;0.001;0.042;0.005;170.0;17.5;-31.9;19.1;149.0;4.3;-88.0;0.0;29.29;39.46889;-0.34092;69.4;NaN;;15.541;;0 / 28;12159;2021-10-27 17:44:45:232
0.655;9.505;0.378;9.778;-0.69;0.364;0.025;0.267;0.0;0.001;0.042;0.005;170.0;17.6;-31.6;19.3;149.1;4.0;-87.9;0.0;29.29;39.46889;-0.34092;69.4;NaN;;15.541;;0 / 28;12208;2021-10-27 17:44:45:281
0.67;9.488;0.38;9.778;-0.675;0.35;0.056;0.253;0.014;0.001;0.042;0.005;170.0;17.5;-31.3;19.2;148.3;3.9;-87.9;0.0;29.29;39.46889;-0.34092;69.4;NaN;;15.541;;0 / 28;12258;2021-10-27 17:44:45:331
0.742;9.507;0.351;9.768;-0.776;0.378;0.003;0.28;0.041;0.001;0.042;0.005;170.0;17.5;-31.4;19.2;148.2;4.1;-87.9;0.0;29.29;39.46889;-0.34092;69.4;NaN;;15.541;;0 / 28;12308;2021-10-27 17:44:45:381
0.694;9.471;0.347;9.778;-0.661;0.369;0.03;0.294;-0.028;0.006;0.063;0.001;173.0;17.3;-31.4;19.1;148.3;4.0;-87.9;0.0;29.29;39.46889;-0.34092;69.4;NaN;;15.541;;0 / 28;12359;2021-10-27 17:44:45:432
0.732;9.497;0.347;9.773;-0.733;0.364;0.003;0.28;0.012;0.006;0.05;0.002;173.0;17.6;-31.7;19.2;149.0;4.4;-88.0;0.0;30.13;39.46889;-0.34092;69.4;NaN;;15.541;;0 / 28;12409;2021-10-27 17:44:45:482
0.672;9.502;0.354;9.773;-0.718;0.35;0.017;0.307;0.038;0.004;0.031;0.002;173.0;17.8;-31.9;18.8;149.1;4.3;-87.7;0.0;30.13;39.46889;-0.34092;69.4;NaN;;15.541;;0 / 28;12458;2021-10-27 17:44:45:531
0.658;9.469;0.435;9.778;-0.661;0.393;0.058;0.294;-0.031;0.004;0.015;0.001;173.0;18.1;-32.0;18.6;149.1;3.9;-88.0;0.0;30.13;39.46889;-0.34092;69.4;NaN;;15.541;;0 / 28;12508;2021-10-27 17:44:45:581
0.682;9.505;0.416;9.773;-0.718;0.393;-0.011;0.294;-0.005;0.0;-0.013;-0.002;173.0;17.8;-32.0;18.6;149.3;4.0;-87.4;0.0;30.13;39.46889;-0.34092;69.4;NaN;;15.541;;0 / 28;12559;2021-10-27 17:44:45:632
0.744;9.471;0.347;9.768;-0.771;0.364;-0.066;0.321;-0.004;-0.005;-0.055;-0.003;173.0;17.9;-32.0;18.8;149.1;4.4;-87.7;0.0;30.13;39.46889;-0.34092;69.4;NaN;;15.541;;0 / 28;12608;2021-10-27 17:44:45:681
0.67;9.495;0.399;9.773;-0.675;0.421;0.016;0.307;-0.002;-0.011;-0.052;0.0;173.0;17.9;-32.2;19.1;149.1;4.2;-87.7;0.0;30.13;39.46889;-0.34092;69.4;NaN;;15.541;;0 / 28;12659;2021-10-27 17:44:45:732
0.653;9.512;0.351;9.778;-0.67;0.364;0.058;0.253;0.015;-0.008;-0.037;0.002;174.0;18.4;-32.0;18.9;149.1;3.9;-87.9;0.0;29.96;39.46889;-0.34092;69.4;NaN;;15.541;;0 / 28;12708;2021-10-27 17:44:45:781
0.71;9.495;0.39;9.773;-0.733;0.407;-0.008;0.307;0.003;-0.006;-0.041;0.003;174.0;18.6;-32.0;18.7;149.1;4.3;-87.6;0.0;29.96;39.46889;-0.34092;69.4;NaN;;15.541;;0 / 28;12759;2021-10-27 17:44:45:832
0.675;9.514;0.339;9.778;-0.704;0.297;0.034;0.307;0.1;-0.006;-0.045;0.0;174.0;18.4;-31.9;18.7;149.2;4.1;-87.7;0.0;29.96;39.46889;-0.34092;69.4;NaN;;15.541;;0 / 28;12808;2021-10-27 17:44:45:881
0.698;9.5;0.366;9.773;-0.685;0.378;0.048;0.252;0.03;-0.006;-0.045;0.0;174.0;17.8;-31.9;18.8;149.1;4.2;-87.9;0.0;29.96;39.46889;-0.34092;69.4;NaN;;15.541;;0 / 28;12859;2021-10-27 17:44:45:932
0.696;9.509;0.327;9.778;-0.704;0.35;0.007;0.334;0.08;-0.006;-0.045;0.0;174.0;17.5;-31.9;18.7;149.0;4.3;-87.9;0.0;29.96;39.46889;-0.34092;69.4;NaN;;15.541;;0 / 28;12908;2021-10-27 17:44:45:981
0.698;9.497;0.411;9.773;-0.69;0.407;0.034;0.28;-0.02;-0.006;-0.045;0.0;174.0;17.6;-31.9;18.9;149.2;4.0;-87.6;0.0;29.96;39.46889;-0.34092;69.4;NaN;;15.541;;0 / 28;12959;2021-10-27 17:44:46:032
0.698;9.462;0.344;9.773;-0.718;0.378;0.019;0.294;0.004;0.008;0.038;-0.001;175.0;17.8;-32.0;18.8;149.1;4.1;-87.9;0.0;30.39;39.46889;-0.34092;69.4;NaN;;15.541;;0 / 28;13008;2021-10-27 17:44:46:081
0.694;9.454;0.402;9.773;-0.685;0.393;-0.009;0.308;0.001;0.007;0.04;0.0;175.0;18.0;-31.9;19.1;149.0;4.2;-87.9;0.0;30.39;39.46889;-0.34092;69.4;NaN;;15.541;;0 / 28;13058;2021-10-27 17:44:46:131
0.675;9.5;0.287;9.783;-0.646;0.283;0.046;0.294;0.083;0.002;0.017;0.003;175.0;17.9;-32.0;18.5;149.1;4.1;-87.8;0.0;30.39;39.46889;-0.34092;69.4;NaN;;15.541;;0 / 28;13109;2021-10-27 17:44:46:182
0.708;9.462;0.351;9.773;-0.733;0.378;0.033;0.294;0.0;0.003;0.01;0.002;175.0;17.8;-31.6;18.6;149.1;4.3;-87.8;0.0;30.39;39.46889;-0.34092;69.4;NaN;;15.541;;0 / 28;13159;2021-10-27 17:44:46:232
0.686;9.476;0.327;9.773;-0.733;0.311;0.019;0.294;0.065;0.006;-0.021;-0.001;175.0;17.8;-31.7;18.5;150.3;4.2;-88.2;0.0;30.39;39.46889;-0.34092;69.4;NaN;;15.541;;0 / 28;13209;2021-10-27 17:44:46:282
0.663;9.485;0.308;9.778;-0.69;0.34;0.047;0.294;0.059;0.014;-0.037;-0.003;175.0;18.1;-31.1;18.9;148.2;4.0;-88.0;0.0;30.39;39.46889;-0.34092;69.4;NaN;;15.541;;0 / 28;13258;2021-10-27 17:44:46:331
0.667;9.493;0.335;9.778;-0.699;0.321;0.018;0.295;0.023;0.011;-0.021;-0.002;175.0;18.1;-31.4;19.1;148.1;4.1;-88.1;0.0;30.39;39.46889;-0.34092;69.4;NaN;;15.541;;0 / 28;13308;2021-10-27 17:44:46:381
0.713;9.517;0.339;9.773;-0.742;0.393;-0.023;0.295;0.033;0.009;-0.018;-0.002;177.0;18.0;-31.7;19.0;149.0;4.0;-88.2;0.0;31.0;39.46889;-0.34092;69.4;NaN;;15.541;;0 / 28;13359;2021-10-27 17:44:46:432
0.651;9.426;0.351;9.778;-0.666;0.34;0.072;0.336;0.015;0.004;0.007;-0.001;177.0;17.8;-31.6;18.9;149.0;4.1;-88.0;0.0;31.0;39.46889;-0.34092;69.4;NaN;;15.541;;0 / 28;13409;2021-10-27 17:44:46:482
0.675;9.49;0.311;9.773;-0.718;0.326;0.044;0.281;0.041;0.002;0.017;0.001;177.0;17.7;-32.0;19.1;148.9;4.2;-88.3;0.0;31.0;39.46889;-0.34092;69.4;NaN;;15.541;;0 / 28;13459;2021-10-27 17:44:46:532
0.696;9.505;0.239;9.778;-0.713;0.278;0.017;0.281;0.095;0.002;0.017;0.001;177.0;17.8;-32.2;19.1;148.9;4.0;-88.4;0.0;31.0;39.46889;-0.34092;69.4;NaN;;15.541;;0 / 28;13508;2021-10-27 17:44:46:581
0.663;9.483;0.347;9.778;-0.666;0.34;0.044;0.323;0.022;0.002;0.017;0.001;177.0;18.1;-32.0;19.3;149.0;4.0;-88.2;0.0;31.0;39.46889;-0.34092;69.4;NaN;;15.541;;0 / 28;13559;2021-10-27 17:44:46:632
0.706;9.481;0.289;9.778;-0.675;0.311;0.016;0.296;0.029;0.002;0.017;0.001;177.0;18.4;-32.0;18.8;149.0;3.9;-88.3;0.0;31.0;39.46889;-0.34092;69.4;NaN;;15.541;;0 / 28;13609;2021-10-27 17:44:46:682
0.746;9.481;0.342;9.768;-0.757;0.364;-0.026;0.269;0.008;0.013;0.003;-0.004;177.0;18.3;-31.7;19.1;148.9;4.6;-88.0;0.0;31.0;39.46889;-0.34092;69.4;NaN;;15.541;;0 / 28;13658;2021-10-27 17:44:46:731
0.682;9.474;0.32;9.778;-0.704;0.321;0.0;0.296;0.005;0.008;-0.01;-0.002;175.0;18.0;-31.6;19.2;148.9;4.2;-88.1;0.0;29.66;39.46889;-0.34092;69.4;NaN;;15.541;;0 / 28;13709;2021-10-27 17:44:46:782
0.658;9.469;0.28;9.783;-0.661;0.283;0.055;0.31;0.004;0.001;-0.01;0.0;175.0;17.8;-31.6;19.2;148.9;4.3;-88.1;0.0;29.66;39.46889;-0.34092;69.4;NaN;;15.541;;0 / 28;13759;2021-10-27 17:44:46:832
0.684;9.493;0.339;9.778;-0.685;0.35;0.029;0.282;-0.01;0.0;0.0;0.0;175.0;17.8;-31.4;19.1;148.2;4.0;-88.0;0.0;29.66;39.46889;-0.34092;69.4;NaN;;15.541;;0 / 28;13808;2021-10-27 17:44:46:881
0.694;9.483;0.32;9.778;-0.69;0.326;0.029;0.296;-0.008;-0.003;0.019;-0.001;175.0;18.1;-31.4;19.2;148.2;4.0;-88.1;0.0;29.66;39.46889;-0.34092;69.4;NaN;;15.541;;0 / 28;13859;2021-10-27 17:44:46:932
0.732;9.466;0.318;9.778;-0.704;0.34;0.014;0.282;-0.006;-0.001;0.026;-0.001;175.0;17.9;-31.3;19.4;148.1;4.2;-88.0;0.0;29.66;39.46889;-0.34092;69.4;NaN;;15.541;;0 / 28;13909;2021-10-27 17:44:46:982
0.718;9.5;0.296;9.773;-0.742;0.311;0.054;0.31;0.035;0.0;0.026;-0.002;175.0;18.5;-31.4;19.4;146.7;4.0;-88.2;0.0;29.66;39.46889;-0.34092;69.4;NaN;;15.541;;0 / 28;13959;2021-10-27 17:44:47:032
0.677;9.502;0.282;9.778;-0.675;0.306;0.079;0.269;0.036;0.001;0.03;-0.003;169.0;18.2;-31.4;19.6;148.2;4.1;-88.0;0.0;29.77;39.46889;-0.34092;69.4;NaN;;15.541;;0 / 28;14008;2021-10-27 17:44:47:081
0.684;9.519;0.287;9.778;-0.685;0.306;-0.018;0.31;0.036;0.003;0.027;-0.003;169.0;17.8;-31.9;19.7;147.6;4.0;-88.2;0.0;29.77;39.46889;-0.34092;69.4;NaN;;15.541;;0 / 28;14059;2021-10-27 17:44:47:132
0.698;9.478;0.371;9.773;-0.747;0.364;0.008;0.324;-0.033;0.003;0.033;-0.002;169.0;17.5;-31.9;19.7;147.7;4.2;-87.9;0.0;29.77;39.46889;-0.34092;69.4;NaN;;15.541;;0 / 28;14109;2021-10-27 17:44:47:182
0.686;9.502;0.323;9.778;-0.69;0.311;0.021;0.283;0.022;0.003;0.033;-0.002;169.0;17.4;-31.7;19.3;147.6;4.2;-88.2;0.0;29.77;39.46889;-0.34092;69.4;NaN;;15.541;;0 / 28;14158;2021-10-27 17:44:47:231
0.677;9.5;0.294;9.778;-0.713;0.306;0.007;0.242;0.022;0.003;0.033;-0.002;169.0;17.5;-31.6;18.8;148.9;4.0;-88.3;0.0;29.77;39.46889;-0.34092;69.4;NaN;;15.541;;0 / 28;14208;2021-10-27 17:44:47:281
0.658;9.474;0.251;9.783;-0.675;0.254;0.02;0.31;0.09;0.003;0.033;-0.002;169.0;18.1;-31.1;18.8;148.0;3.9;-88.5;0.0;29.77;39.46889;-0.34092;69.4;NaN;;15.541;;0 / 28;14259;2021-10-27 17:44:47:332
0.701;9.509;0.253;9.783;-0.661;0.254;0.048;0.297;0.059;0.003;0.033;-0.002;169.0;18.1;-31.1;18.8;148.0;3.9;-88.4;0.0;29.77;39.46889;-0.34092;69.4;NaN;;15.541;;0 / 28;14309;2021-10-27 17:44:47:382
0.658;9.5;0.299;9.778;-0.69;0.297;0.062;0.338;0.025;0.014;-0.065;-0.002;162.0;17.8;-31.3;18.8;148.1;3.8;-88.3;0.0;37.79;39.46889;-0.34092;69.4;NaN;;15.541;;0 / 28;14358;2021-10-27 17:44:47:431
0.629;9.471;0.263;9.778;-0.704;0.311;0.074;0.324;0.041;0.012;-0.07;-0.007;162.0;17.5;-31.4;18.5;148.2;4.0;-88.1;0.0;37.79;39.46889;-0.34092;69.4;NaN;;15.541;;0 / 28;14409;2021-10-27 17:44:47:482
0.686;9.507;0.299;9.778;-0.713;0.292;0.016;0.27;0.036;0.009;-0.054;-0.011;162.0;17.9;-31.6;18.7;148.9;4.2;-88.3;0.0;37.79;39.46889;-0.34092;69.4;NaN;;15.541;;0 / 28;14458;2021-10-27 17:44:47:531
0.686;9.5;0.272;9.778;-0.69;0.268;0.012;0.298;0.057;0.007;-0.046;-0.008;162.0;18.1;-31.4;18.7;148.0;3.9;-88.4;0.0;37.79;39.46889;-0.34092;69.4;NaN;;15.541;;0 / 28;14509;2021-10-27 17:44:47:582
0.67;9.476;0.323;9.783;-0.661;0.297;0.079;0.326;-0.014;0.005;-0.033;-0.004;162.0;18.0;-31.3;19.1;148.1;3.8;-88.3;0.0;37.79;39.46889;-0.34092;69.4;NaN;;15.541;;0 / 28;14558;2021-10-27 17:44:47:631
0.677;9.5;0.26;9.778;-0.69;0.306;0.01;0.271;0.011;0.002;-0.024;-0.001;162.0;18.0;-31.1;19.0;148.0;4.2;-88.3;0.0;37.79;39.46889;-0.34092;69.4;NaN;;15.541;;0 / 28;14608;2021-10-27 17:44:47:681
0.686;9.459;0.263;9.778;-0.69;0.268;-0.003;0.298;0.064;0.0;0.0;0.0;162.0;18.1;-31.3;19.1;148.0;4.0;-88.4;0.0;31.79;39.46889;-0.34092;69.4;NaN;;15.541;;0 / 28;14659;2021-10-27 17:44:47:732
0.663;9.5;0.193;9.778;-0.704;0.211;-0.002;0.312;0.063;0.001;-0.006;0.004;158.0;18.4;-31.1;19.1;148.0;4.1;-88.4;0.0;31.79;39.46889;-0.34092;69.4;NaN;;15.541;;0 / 28;14709;2021-10-27 17:44:47:782
0.643;9.476;0.22;9.783;-0.675;0.239;0.041;0.339;0.046;0.002;-0.009;0.005;158.0;18.3;-31.4;19.3;147.8;3.9;-88.9;0.0;31.79;39.46889;-0.34092;69.4;NaN;;15.541;;0 / 28;14759;2021-10-27 17:44:47:832
0.722;9.485;0.236;9.778;-0.747;0.239;-0.053;0.312;0.013;0.002;-0.009;0.005;158.0;17.9;-31.6;19.3;148.0;4.2;-88.3;0.0;31.79;39.46889;-0.34092;69.4;NaN;;15.541;;0 / 28;14809;2021-10-27 17:44:47:882
0.658;9.5;0.225;9.778;-0.699;0.268;0.016;0.258;0.004;0.002;-0.009;0.005;158.0;17.6;-31.6;19.2;148.7;3.9;-88.8;0.0;31.79;39.46889;-0.34092;69.4;NaN;;15.541;;0 / 28;14859;2021-10-27 17:44:47:932
0.698;9.481;0.258;9.783;-0.661;0.268;0.03;0.285;0.014;0.002;-0.009;0.005;158.0;17.6;-31.6;19.3;148.8;4.2;-88.5;0.0;31.79;39.46889;-0.34092;69.4;NaN;;15.541;;0 / 28;14908;2021-10-27 17:44:47:981
0.689;9.454;0.241;9.783;-0.675;0.225;0.044;0.285;0.037;0.002;-0.009;0.005;158.0;17.5;-31.4;19.0;148.0;4.2;-88.4;0.0;31.79;39.46889;-0.34092;69.4;NaN;;15.541;;0 / 28;14958;2021-10-27 17:44:48:031
0.66;9.485;0.292;9.778;-0.704;0.268;0.017;0.285;-0.045;0.007;0.057;0.002;160.0;17.5;-31.1;19.2;148.0;3.9;-88.5;0.0;30.39;39.46889;-0.34092;69.4;NaN;;15.541;;0 / 28;15008;2021-10-27 17:44:48:081
0.718;9.509;0.26;9.778;-0.733;0.268;0.003;0.312;-0.029;-0.005;0.032;0.002;160.0;17.7;-31.1;18.8;147.9;4.3;-88.4;0.0;30.39;39.46889;-0.34092;69.4;NaN;;15.541;;0 / 28;15059;2021-10-27 17:44:48:132
0.722;9.493;0.241;9.773;-0.771;0.239;-0.023;0.299;-0.04;-0.005;0.032;0.002;160.0;17.6;-31.3;19.0;147.8;4.5;-88.6;0.0;30.39;39.46889;-0.34092;69.4;NaN;;15.541;;0 / 28;15108;2021-10-27 17:44:48:181
0.655;9.49;0.296;9.783;-0.646;0.254;0.048;0.298;0.046;-0.007;-0.001;0.007;160.0;17.7;-31.7;18.7;148.0;3.9;-88.6;0.0;30.39;39.46889;-0.34092;69.4;NaN;;15.541;;0 / 28;15158;2021-10-27 17:44:48:231
0.679;9.5;0.327;9.778;-0.675;0.335;0.024;0.298;-0.005;-0.005;-0.002;0.003;160.0;17.5;-31.7;19.3;148.8;4.3;-88.4;0.0;30.39;39.46889;-0.34092;69.4;NaN;;15.541;;0 / 28;15209;2021-10-27 17:44:48:282
0.677;9.476;0.296;9.783;-0.646;0.268;0.024;0.339;-0.017;-0.003;0.003;0.001;160.0;17.6;-31.6;18.9;148.9;3.8;-88.4;0.0;30.39;39.46889;-0.34092;69.4;NaN;;15.541;;0 / 28;15259;2021-10-27 17:44:48:332
0.677;9.519;0.303;9.778;-0.69;0.297;-0.018;0.271;-0.001;-0.004;0.006;-0.001;160.0;17.5;-31.4;18.7;147.9;4.3;-88.4;0.0;29.57;39.46889;-0.34092;69.4;NaN;;15.541;;0 / 28;15308;2021-10-27 17:44:48:381
0.686;9.442;0.303;9.778;-0.704;0.283;0.023;0.325;-0.039;-0.009;0.011;0.002;166.0;17.5;-31.6;18.6;149.1;3.9;-88.0;0.0;29.57;39.46889;-0.34092;69.4;NaN;;15.541;;0 / 28;15358;2021-10-27 17:44:48:431
0.725;9.5;0.301;9.773;-0.733;0.311;-0.003;0.298;-0.021;-0.007;0.01;0.002;166.0;17.4;-31.7;18.7;148.9;4.2;-88.2;0.0;29.57;39.46889;-0.34092;69.4;NaN;;15.541;;0 / 28;15409;2021-10-27 17:44:48:482
0.72;9.447;0.325;9.773;-0.742;0.311;-0.014;0.297;-0.015;-0.007;0.01;0.002;166.0;17.6;-31.7;18.8;148.9;4.2;-88.2;0.0;29.57;39.46889;-0.34092;69.4;NaN;;15.541;;0 / 28;15459;2021-10-27 17:44:48:532
0.696;9.474;0.306;9.783;-0.661;0.297;0.069;0.297;0.002;-0.007;0.01;0.002;166.0;17.3;-31.7;18.7;148.9;3.9;-88.4;0.0;29.57;39.46889;-0.34092;69.4;NaN;;15.541;;0 / 28;15508;2021-10-27 17:44:48:581
0.691;9.521;0.292;9.778;-0.699;0.297;0.029;0.283;0.008;-0.007;0.01;0.002;166.0;17.2;-31.7;18.8;149.0;4.0;-88.1;0.0;29.57;39.46889;-0.34092;69.4;NaN;;15.541;;0 / 28;15558;2021-10-27 17:44:48:631
0.682;9.5;0.311;9.778;-0.704;0.297;0.015;0.31;-0.003;-0.006;0.003;-0.002;166.0;17.4;-31.9;18.9;148.8;4.3;-88.3;0.0;29.57;39.46889;-0.34092;69.4;NaN;;15.541;;0 / 28;15609;2021-10-27 17:44:48:682
0.703;9.481;0.296;9.773;-0.742;0.283;0.027;0.324;0.012;-0.003;0.013;-0.004;166.0;17.7;-31.7;18.8;148.8;4.3;-88.3;0.0;29.83;39.46889;-0.34092;69.4;NaN;;15.541;;0 / 28;15659;2021-10-27 17:44:48:732
0.694;9.507;0.306;9.778;-0.718;0.268;0.012;0.297;0.0;0.0;0.009;-0.001;174.0;17.5;-31.7;18.8;148.9;4.3;-88.3;0.0;29.83;39.46889;-0.34092;69.4;NaN;;15.541;;0 / 28;15708;2021-10-27 17:44:48:781
0.694;9.464;0.282;9.778;-0.69;0.311;0.052;0.31;0.014;0.0;-0.002;-0.001;174.0;17.8;-32.0;18.9;149.0;3.9;-88.2;0.0;29.83;39.46889;-0.34092;0.6;NaN;0.0;15.541;0.0;4 / 29;15758;2021-10-27 17:44:48:831
0.689;9.466;0.308;9.778;-0.704;0.283;0.011;0.297;0.014;-0.001;-0.017;-0.001;174.0;17.8;-32.0;19.0;148.9;4.0;-88.3;0.0;29.83;39.46887;-0.34086;0.6;NaN;0.0;7.6;0.0;4 / 29;15808;2021-10-27 17:44:48:881
0.715;9.478;0.32;9.773;-0.718;0.335;-0.003;0.283;-0.014;-0.002;-0.024;-0.001;174.0;18.3;-31.9;19.1;149.0;4.2;-88.0;0.0;29.83;39.46887;-0.34086;0.6;NaN;0.0;7.6;0.0;4 / 29;15858;2021-10-27 17:44:48:931
0.727;9.464;0.308;9.773;-0.713;0.335;0.024;0.297;-0.052;-0.009;-0.032;-0.001;174.0;18.1;-31.4;18.9;148.2;4.2;-88.0;0.0;29.83;39.46887;-0.34086;0.6;NaN;0.0;7.6;0.0;4 / 29;15909;2021-10-27 17:44:48:982
0.739;9.466;0.299;9.778;-0.704;0.326;0.039;0.283;0.007;-0.01;-0.021;0.002;174.0;17.6;-31.3;19.2;148.0;4.3;-88.3;0.0;30.07;39.46887;-0.34086;0.6;NaN;0.0;7.6;0.0;4 / 29;15958;2021-10-27 17:44:49:031
0.653;9.464;0.284;9.783;-0.661;0.297;0.054;0.31;-0.016;-0.009;0.006;0.002;179.0;17.3;-31.3;19.4;148.2;4.1;-88.0;0.0;30.07;39.46887;-0.34086;0.6;NaN;0.0;7.6;0.0;4 / 29;16009;2021-10-27 17:44:49:082
0.686;9.464;0.342;9.778;-0.704;0.326;0.027;0.31;0.0;-0.006;0.013;0.002;179.0;17.3;-31.9;19.7;147.5;3.9;-88.5;0.0;30.07;39.46887;-0.34086;0.6;NaN;0.0;7.6;0.0;4 / 29;16059;2021-10-27 17:44:49:132
0.72;9.5;0.315;9.778;-0.718;0.311;-0.015;0.31;0.002;-0.006;0.013;0.002;179.0;17.6;-32.0;19.5;147.6;4.3;-88.0;0.0;30.07;39.46887;-0.34086;0.6;NaN;0.0;7.6;0.0;4 / 29;16108;2021-10-27 17:44:49:181
0.66;9.474;0.28;9.778;-0.675;0.283;0.079;0.283;0.043;-0.006;0.013;0.002;179.0;18.1;-31.9;19.1;148.9;4.1;-88.3;0.0;30.07;39.46887;-0.34086;0.6;NaN;0.0;7.6;0.0;4 / 29;16158;2021-10-27 17:44:49:231
0.694;9.483;0.301;9.773;-0.733;0.311;0.036;0.297;0.0;0.006;0.038;-0.002;179.0;17.6;-31.6;18.8;148.9;4.2;-88.2;0.0;30.07;39.46887;-0.34086;0.6;NaN;0.0;7.6;0.0;4 / 29;16209;2021-10-27 17:44:49:282
0.701;9.481;0.342;9.778;-0.704;0.335;0.021;0.297;0.012;0.005;0.022;-0.002;179.0;17.7;-31.7;18.6;149.0;4.1;-88.0;0.0;30.07;39.46887;-0.34086;0.6;NaN;0.0;7.6;0.0;4 / 29;16259;2021-10-27 17:44:49:332
0.722;9.5;0.361;9.773;-0.728;0.335;-0.007;0.283;-0.043;-0.001;-0.034;-0.002;179.0;17.4;-31.9;19.0;149.0;4.3;-88.0;0.0;29.88;39.46887;-0.34086;0.6;NaN;0.0;7.6;0.0;4 / 29;16308;2021-10-27 17:44:49:381
0.727;9.483;0.335;9.773;-0.728;0.292;-0.032;0.283;-0.015;-0.005;-0.04;0.002;181.0;18.0;-31.9;19.2;149.0;4.5;-87.7;0.0;29.88;39.46887;-0.34086;0.6;NaN;0.0;7.6;0.0;4 / 29;16359;2021-10-27 17:44:49:432
0.691;9.469;0.289;9.773;-0.718;0.335;0.012;0.31;0.016;-0.013;-0.014;0.008;181.0;17.8;-31.9;19.4;148.9;4.3;-88.3;0.0;29.88;39.46887;-0.34086;0.6;NaN;0.0;7.6;0.0;4 / 29;16408;2021-10-27 17:44:49:481
0.667;9.485;0.299;9.778;-0.704;0.311;0.043;0.269;0.02;-0.01;-0.014;0.011;181.0;18.1;-31.7;19.1;148.9;4.1;-88.3;0.0;29.88;39.46887;-0.34086;0.6;NaN;0.0;7.6;0.0;4 / 29;16459;2021-10-27 17:44:49:532
0.672;9.507;0.323;9.773;-0.713;0.335;0.061;0.309;0.01;-0.004;0.003;0.005;181.0;17.8;-31.6;19.1;148.9;4.0;-88.3;0.0;29.88;39.46887;-0.34086;0.6;NaN;0.0;7.6;0.0;4 / 29;16508;2021-10-27 17:44:49:581
0.696;9.485;0.33;9.778;-0.704;0.321;0.049;0.295;-0.017;0.0;-0.005;0.002;181.0;17.6;-31.7;19.2;149.0;4.3;-88.0;0.0;29.88;39.46887;-0.34086;0.6;NaN;0.0;7.6;0.0;4 / 29;16559;2021-10-27 17:44:49:632
0.689;9.49;0.313;9.778;-0.704;0.297;0.018;0.282;0.036;0.004;0.007;-0.008;181.0;17.5;-31.4;19.6;148.8;4.2;-88.5;0.0;30.18;39.46887;-0.34086;0.6;NaN;0.0;7.6;0.0;4 / 29;16609;2021-10-27 17:44:49:682
0.694;9.49;0.332;9.773;-0.718;0.326;0.015;0.296;0.021;0.005;0.026;-0.006;181.0;17.6;-31.4;20.0;146.7;4.2;-88.1;0.0;30.18;39.46887;-0.34086;0.6;NaN;0.0;7.6;0.0;4 / 29;16658;2021-10-27 17:44:49:731
0.696;9.509;0.277;9.778;-0.699;0.297;0.025;0.283;0.032;0.007;0.038;-0.005;179.0;18.0;-31.3;19.9;146.8;4.1;-88.1;0.0;30.18;39.46887;-0.34086;0.6;NaN;0.0;7.6;0.0;4 / 29;16708;2021-10-27 17:44:49:781
0.739;9.485;0.284;9.773;-0.761;0.268;0.009;0.337;0.028;0.007;0.038;-0.005;179.0;17.9;-31.3;19.7;146.6;4.2;-88.3;0.0;30.18;39.46887;-0.34087;0.6;NaN;0.0;7.6;0.0;4 / 29;16759;2021-10-27 17:44:49:832
0.665;9.507;0.21;9.783;-0.67;0.211;0.037;0.283;0.102;0.016;0.056;0.002;179.0;17.9;-31.6;19.4;146.5;4.3;-88.4;0.0;30.18;39.46887;-0.34087;0.6;NaN;0.0;7.6;0.0;4 / 29;16809;2021-10-27 17:44:49:882
0.689;9.5;0.198;9.778;-0.704;0.196;0.065;0.27;0.094;0.023;0.009;0.002;179.0;17.2;-31.6;19.3;148.7;4.1;-88.8;0.0;30.18;39.46887;-0.34087;0.6;NaN;0.0;7.6;0.0;4 / 29;16858;2021-10-27 17:44:49:931
0.67;9.485;0.191;9.778;-0.704;0.225;0.051;0.297;0.124;0.031;-0.019;0.0;179.0;17.6;-31.7;18.9;148.7;3.9;-88.9;0.0;30.65;39.46887;-0.34087;0.6;NaN;0.0;7.6;0.0;4 / 29;16909;2021-10-27 17:44:49:982
0.631;9.481;0.248;9.783;-0.637;0.225;0.09;0.339;0.045;0.026;-0.05;-0.004;179.0;17.7;-31.4;18.7;149.0;3.6;-88.4;0.0;30.65;39.46887;-0.34087;0.6;NaN;0.0;7.6;0.0;4 / 29;16958;2021-10-27 17:44:50:031
0.725;9.49;0.248;9.778;-0.704;0.239;0.018;0.312;0.064;0.018;-0.061;-0.011;174.0;17.8;-31.6;18.8;148.8;3.9;-88.6;0.0;30.65;39.46887;-0.34087;0.6;NaN;0.0;7.6;0.0;4 / 29;17008;2021-10-27 17:44:50:081
0.658;9.466;0.27;9.783;-0.661;0.283;0.016;0.285;-0.011;0.009;-0.049;-0.007;174.0;17.7;-31.7;19.2;148.8;4.0;-88.5;0.0;30.65;39.46887;-0.34087;0.6;NaN;0.0;7.6;0.0;4 / 29;17059;2021-10-27 17:44:50:132
0.66;9.476;0.265;9.783;-0.646;0.239;0.067;0.299;-0.002;0.001;-0.034;-0.007;174.0;17.4;-31.7;19.1;148.9;3.8;-88.5;0.0;30.65;39.46887;-0.34087;0.6;NaN;0.0;7.6;0.0;4 / 29;17108;2021-10-27 17:44:50:181
0.689;9.502;0.217;9.778;-0.69;0.254;0.064;0.313;-0.028;-0.008;-0.001;-0.005;174.0;17.5;-31.7;19.0;149.0;3.8;-88.3;0.0;30.65;39.46887;-0.34087;0.6;NaN;0.0;7.6;0.0;4 / 29;17158;2021-10-27 17:44:50:231
0.744;9.509;0.275;9.773;-0.733;0.321;-0.074;0.286;-0.011;-0.006;0.003;-0.003;174.0;17.8;-31.7;18.9;148.8;4.2;-88.5;0.0;30.65;39.46887;-0.34087;0.6;NaN;0.0;7.6;0.0;4 / 29;17208;2021-10-27 17:44:50:281
0.698;9.478;0.26;9.778;-0.728;0.283;0.007;0.313;-0.02;-0.008;0.003;-0.002;174.0;18.3;-31.9;19.2;148.8;4.1;-88.5;0.0;43.5;39.46887;-0.34087;0.6;NaN;0.0;7.6;0.0;4 / 29;17259;2021-10-27 17:44:50:332
0.691;9.507;0.292;9.778;-0.685;0.306;0.01;0.313;-0.044;-0.008;-0.012;0.01;174.0;18.3;-31.6;19.1;148.9;4.1;-88.3;0.0;43.5;39.46887;-0.34087;0.6;NaN;0.0;7.6;0.0;4 / 29;17308;2021-10-27 17:44:50:381
0.725;9.49;0.217;9.778;-0.728;0.211;-0.052;0.285;0.054;-0.008;-0.012;0.01;158.0;18.0;-31.6;19.4;148.7;4.3;-88.8;0.0;43.5;39.46887;-0.34087;0.6;NaN;0.0;7.6;0.0;4 / 29;17358;2021-10-27 17:44:50:431
0.686;9.466;0.349;9.773;-0.718;0.364;0.022;0.353;-0.051;-0.009;-0.044;0.01;158.0;17.8;-31.6;19.5;148.1;4.1;-88.3;0.0;43.5;39.46887;-0.34087;0.6;NaN;0.0;7.6;0.0;4 / 29;17408;2021-10-27 17:44:50:481
0.718;9.495;0.208;9.778;-0.733;0.211;-0.001;0.325;0.087;-0.009;-0.044;0.01;158.0;18.1;-31.9;20.0;147.4;4.1;-88.8;0.0;43.5;39.46887;-0.34087;0.6;NaN;0.0;7.6;0.0;4 / 29;17459;2021-10-27 17:44:50:532
0.677;9.507;0.244;9.778;-0.718;0.283;0.016;0.325;-0.006;0.001;0.034;0.007;158.0;18.0;-31.9;19.9;147.5;4.1;-88.4;0.0;43.5;39.46887;-0.34087;0.6;NaN;0.0;7.6;0.0;4 / 29;17509;2021-10-27 17:44:50:582
0.651;9.445;0.27;9.783;-0.661;0.297;0.045;0.297;-0.006;0.003;0.041;0.005;158.0;17.8;-31.7;19.6;147.5;4.0;-88.3;0.0;43.5;39.46887;-0.34087;0.6;NaN;0.0;7.6;0.0;4 / 29;17558;2021-10-27 17:44:50:631
0.732;9.509;0.268;9.778;-0.728;0.283;0.006;0.284;0.034;0.003;0.041;0.002;158.0;17.2;-31.4;19.3;148.9;4.1;-88.3;0.0;35.92;39.46887;-0.34087;0.6;NaN;0.0;7.6;0.0;4 / 29;17608;2021-10-27 17:44:50:681
0.696;9.464;0.28;9.778;-0.728;0.268;0.02;0.284;0.008;0.002;0.053;0.003;158.0;17.4;-31.6;19.3;148.8;4.2;-88.4;0.0;35.92;39.46887;-0.34087;0.6;NaN;0.0;7.6;0.0;4 / 29;17659;2021-10-27 17:44:50:732
0.703;9.497;0.287;9.778;-0.685;0.268;0.048;0.256;0.009;0.001;0.05;0.003;149.0;17.7;-31.6;19.4;148.9;4.2;-88.3;0.0;35.92;39.46887;-0.34087;0.6;NaN;0.0;7.6;0.0;4 / 29;17708;2021-10-27 17:44:50:781
0.746;9.466;0.339;9.773;-0.742;0.297;-0.018;0.297;0.011;-0.003;0.003;0.004;149.0;17.8;-31.9;18.8;148.9;4.1;-88.3;0.0;35.92;39.46887;-0.34087;0.6;NaN;0.0;7.6;0.0;4 / 29;17759;2021-10-27 17:44:50:832
0.691;9.478;0.296;9.778;-0.69;0.297;0.051;0.31;-0.029;-0.004;-0.02;0.002;149.0;17.8;-31.7;18.5;148.8;4.3;-88.3;0.0;35.92;39.46887;-0.34087;0.6;NaN;0.0;7.6;0.0;4 / 29;17808;2021-10-27 17:44:50:881
0.66;9.519;0.253;9.778;-0.704;0.254;0.052;0.31;0.027;-0.006;-0.043;-0.001;149.0;17.9;-31.7;18.9;148.8;4.1;-88.5;0.0;35.92;39.46887;-0.34087;0.6;NaN;0.0;7.6;0.0;4 / 29;17858;2021-10-27 17:44:50:931
0.72;9.483;0.323;9.773;-0.733;0.297;-0.003;0.283;-0.026;-0.007;-0.064;-0.004;149.0;18.0;-31.6;19.2;148.8;4.1;-88.4;0.0;34.68;39.46887;-0.34087;0.6;NaN;0.0;7.6;0.0;4 / 29;17909;2021-10-27 17:44:50:982
0.718;9.49;0.277;9.778;-0.718;0.297;0.022;0.31;0.016;-0.007;-0.054;-0.007;149.0;18.3;-31.9;19.7;147.4;4.5;-88.3;0.0;34.68;39.46887;-0.34087;0.6;NaN;0.0;7.6;0.0;4 / 29;17958;2021-10-27 17:44:51:031
0.663;9.485;0.289;9.783;-0.661;0.297;0.019;0.283;-0.009;-0.007;-0.054;-0.007;151.0;18.0;-31.9;19.8;147.6;4.1;-88.3;0.0;34.68;39.46887;-0.34087;0.6;NaN;0.0;7.6;0.0;4 / 29;18009;2021-10-27 17:44:51:082
0.689;9.485;0.303;9.778;-0.718;0.311;0.018;0.283;0.035;-0.007;0.007;-0.002;151.0;17.8;-31.7;19.5;147.6;4.2;-88.2;0.0;34.68;39.46886;-0.34087;0.6;NaN;0.0;7.6;0.0;4 / 29;18058;2021-10-27 17:44:51:131
0.691;9.493;0.32;9.778;-0.69;0.321;0.017;0.297;-0.016;-0.004;0.036;-0.001;151.0;17.2;-31.7;19.4;148.9;4.2;-88.2;0.0;34.68;39.46886;-0.34087;0.6;NaN;0.0;7.6;0.0;4 / 29;18108;2021-10-27 17:44:51:181
0.734;9.505;0.292;9.773;-0.757;0.292;0.017;0.283;0.013;-0.001;0.045;0.0;151.0;17.3;-31.4;19.1;148.1;4.2;-88.3;0.0;34.68;39.46886;-0.34087;0.6;NaN;0.0;7.6;0.0;4 / 29;18158;2021-10-27 17:44:51:231
0.739;9.495;0.282;9.778;-0.713;0.306;0.003;0.338;0.016;0.001;0.066;0.001;151.0;17.2;-31.3;19.2;148.1;4.2;-88.2;0.0;34.68;39.46886;-0.34087;0.6;NaN;0.0;7.6;0.0;4 / 29;18209;2021-10-27 17:44:51:282
0.67;9.495;0.277;9.778;-0.699;0.306;-0.011;0.283;0.017;0.001;0.055;0.004;151.0;17.6;-31.6;19.3;148.9;4.1;-88.2;0.0;32.71;39.46886;-0.34087;0.6;NaN;0.0;7.6;0.0;4 / 29;18259;2021-10-27 17:44:51:332
0.737;9.481;0.313;9.778;-0.733;0.283;-0.008;0.31;0.005;-0.002;0.02;0.006;151.0;18.0;-31.6;19.1;148.9;4.3;-88.1;0.0;32.71;39.46886;-0.34087;0.6;NaN;0.0;7.6;0.0;4 / 29;18308;2021-10-27 17:44:51:381
0.713;9.459;0.335;9.773;-0.718;0.369;-0.006;0.324;-0.021;-0.004;0.003;0.007;151.0;17.9;-32.2;19.4;148.8;4.4;-88.3;0.0;32.71;39.46886;-0.34087;0.6;NaN;0.0;7.6;0.0;4 / 29;18358;2021-10-27 17:44:51:431
0.696;9.493;0.301;9.778;-0.699;0.254;0.039;0.296;0.011;-0.011;-0.03;0.004;151.0;17.8;-31.9;19.5;149.0;4.3;-88.0;0.0;32.71;39.46886;-0.34087;0.6;NaN;0.0;7.6;0.0;4 / 29;18408;2021-10-27 17:44:51:481
0.634;9.485;0.244;9.783;-0.675;0.196;0.04;0.296;0.082;-0.008;-0.032;0.003;151.0;17.5;-32.2;19.7;147.4;3.9;-88.9;0.0;32.71;39.46886;-0.34087;0.6;NaN;0.0;7.6;0.0;4 / 29;18458;2021-10-27 17:44:51:531
0.675;9.447;0.306;9.778;-0.704;0.254;0.067;0.296;-0.025;-0.004;0.0;-0.003;151.0;17.5;-32.0;19.5;147.7;4.0;-88.0;0.0;32.71;39.46886;-0.34087;0.6;NaN;0.0;7.6;0.0;4 / 29;18509;2021-10-27 17:44:51:582
0.679;9.474;0.246;9.778;-0.675;0.297;0.035;0.296;0.042;0.009;0.009;-0.01;151.0;17.9;-32.2;19.1;148.7;3.9;-88.8;0.0;32.13;39.46886;-0.34087;0.6;NaN;0.0;7.6;0.0;4 / 29;18559;2021-10-27 17:44:51:632
0.734;9.478;0.332;9.773;-0.713;0.335;-0.01;0.296;-0.003;0.008;-0.002;-0.009;151.0;18.1;-32.0;18.9;148.9;4.3;-88.2;0.0;32.13;39.46886;-0.34087;0.6;NaN;0.0;7.6;0.0;4 / 29;18608;2021-10-27 17:44:51:681
0.706;9.471;0.303;9.778;-0.728;0.283;0.001;0.297;0.022;0.008;-0.002;-0.009;151.0;18.0;-32.0;19.1;148.8;4.3;-88.3;0.0;32.13;39.46886;-0.34087;0.6;NaN;0.0;7.6;0.0;4 / 29;18659;2021-10-27 17:44:51:732
0.684;9.462;0.318;9.778;-0.718;0.311;0.014;0.311;-0.009;0.006;-0.019;-0.005;151.0;17.8;-31.9;19.1;148.9;4.3;-88.3;0.0;32.13;39.46886;-0.34087;0.6;NaN;0.0;7.6;0.0;4 / 29;18708;2021-10-27 17:44:51:781
0.708;9.495;0.292;9.778;-0.704;0.297;0.044;0.31;-0.011;-0.002;-0.046;0.002;151.0;17.8;-32.0;19.4;148.8;4.2;-88.4;0.0;32.13;39.46886;-0.34087;0.6;NaN;0.0;7.6;0.0;4 / 29;18759;2021-10-27 17:44:51:832
0.651;9.488;0.272;9.778;-0.675;0.268;0.059;0.297;0.03;-0.002;-0.038;0.001;151.0;17.8;-31.9;19.1;148.8;3.9;-88.6;0.0;32.13;39.46886;-0.34087;0.6;NaN;0.0;7.6;0.0;4 / 29;18808;2021-10-27 17:44:51:881
0.742;9.517;0.27;9.773;-0.757;0.292;0.004;0.297;0.056;0.002;-0.016;-0.003;151.0;17.8;-31.4;19.5;146.5;4.3;-88.5;0.0;31.75;39.46886;-0.34087;0.6;NaN;0.0;7.6;0.0;4 / 29;18859;2021-10-27 17:44:51:932
0.66;9.519;0.193;9.787;-0.603;0.086;0.083;0.311;0.082;0.004;0.004;-0.007;151.0;18.0;-31.3;19.2;148.1;4.1;-88.3;0.0;31.75;39.46886;-0.34087;0.6;NaN;0.0;7.6;0.0;4 / 29;18908;2021-10-27 17:44:51:981
0.703;9.505;0.349;9.773;-0.757;0.35;0.01;0.298;-0.074;0.011;-0.002;-0.009;151.0;17.9;-31.1;19.1;148.0;4.0;-88.4;0.0;31.75;39.46886;-0.34087;0.6;NaN;0.0;7.6;0.0;4 / 29;18959;2021-10-27 17:44:52:032
0.701;9.481;0.347;9.778;-0.699;0.321;0.021;0.284;-0.063;0.006;-0.001;-0.006;153.0;17.8;-31.7;19.0;148.0;4.3;-88.3;0.0;31.75;39.46886;-0.34087;0.6;NaN;0.0;7.6;0.0;4 / 29;19009;2021-10-27 17:44:52:082
0.665;9.466;0.299;9.778;-0.704;0.225;0.046;0.284;0.057;0.004;-0.01;-0.005;153.0;17.2;-31.6;19.1;148.8;4.1;-88.7;0.0;31.75;39.46886;-0.34088;0.5;NaN;0.0;7.5;0.0;4 / 29;19059;2021-10-27 17:44:52:132
0.66;9.521;0.275;9.778;-0.699;0.283;0.031;0.284;-0.062;-0.013;0.009;0.0;153.0;17.1;-31.7;19.3;149.1;4.0;-88.0;0.0;31.75;39.46886;-0.34088;0.5;NaN;0.0;7.5;0.0;4 / 29;19109;2021-10-27 17:44:52:182
0.691;9.49;0.258;9.778;-0.713;0.239;0.059;0.312;0.036;-0.005;0.039;0.002;153.0;17.4;-31.0;19.4;146.5;4.4;-88.6;0.0;31.75;39.46886;-0.34088;0.5;NaN;0.0;7.5;0.0;4 / 29;19158;2021-10-27 17:44:52:231
0.686;9.5;0.263;9.778;-0.718;0.225;0.032;0.298;0.039;0.002;0.061;0.002;153.0;17.2;-31.0;19.3;148.0;4.0;-88.4;0.0;31.86;39.46886;-0.34088;0.5;NaN;0.0;7.5;0.0;4 / 29;19208;2021-10-27 17:44:52:281
0.686;9.488;0.232;9.778;-0.704;0.182;0.018;0.271;0.064;0.013;0.061;0.002;153.0;17.5;-31.3;19.6;146.4;4.1;-88.9;0.0;31.86;39.46886;-0.34088;0.5;NaN;0.0;7.5;0.0;4 / 29;19259;2021-10-27 17:44:52:332
0.708;9.476;0.22;9.783;-0.675;0.254;0.018;0.285;0.027;0.013;0.061;0.002;153.0;17.5;-31.3;19.4;147.9;4.0;-88.6;0.0;31.86;39.46886;-0.34088;0.5;NaN;0.0;7.5;0.0;4 / 29;19309;2021-10-27 17:44:52:382
0.689;9.481;0.241;9.773;-0.761;0.225;-0.009;0.312;0.036;0.017;0.044;0.001;163.0;17.6;-31.7;19.7;147.6;3.9;-88.3;0.0;31.86;39.46886;-0.34088;0.5;NaN;0.0;7.5;0.0;4 / 29;19358;2021-10-27 17:44:52:431
0.682;9.514;0.244;9.778;-0.718;0.283;0.006;0.326;-0.012;0.017;0.044;0.001;163.0;17.5;-32.3;19.7;147.4;4.4;-88.3;0.0;31.86;39.46886;-0.34088;0.5;NaN;0.0;7.5;0.0;4 / 29;19409;2021-10-27 17:44:52:482
0.653;9.512;0.21;9.783;-0.69;0.211;0.062;0.271;0.039;0.008;-0.001;0.004;163.0;17.8;-32.3;19.8;147.4;3.8;-88.9;0.0;31.86;39.46886;-0.34088;0.5;NaN;0.0;7.5;0.0;4 / 29;19459;2021-10-27 17:44:52:532
0.694;9.474;0.268;9.783;-0.661;0.283;0.049;0.312;0.023;0.006;-0.006;0.002;163.0;18.1;-32.0;19.2;148.8;3.9;-88.5;0.0;32.59;39.46886;-0.34088;0.5;NaN;0.0;7.5;0.0;4 / 29;19508;2021-10-27 17:44:52:581
0.708;9.454;0.27;9.778;-0.713;0.297;0.022;0.312;0.007;0.002;-0.018;-0.003;163.0;18.4;-31.4;19.2;148.0;4.2;-88.4;0.0;32.59;39.46886;-0.34088;0.5;NaN;0.0;7.5;0.0;4 / 29;19559;2021-10-27 17:44:52:632
0.703;9.497;0.225;9.778;-0.704;0.225;-0.02;0.285;0.02;-0.001;-0.036;-0.005;163.0;18.4;-31.9;19.0;148.9;4.3;-88.3;0.0;32.59;39.46886;-0.34088;0.5;NaN;0.0;7.5;0.0;4 / 29;19608;2021-10-27 17:44:52:681
0.696;9.526;0.227;9.778;-0.699;0.225;0.033;0.285;0.033;-0.002;-0.065;-0.003;163.0;17.8;-32.0;19.8;147.4;4.1;-88.7;0.0;32.59;39.46886;-0.34088;0.5;NaN;0.0;7.5;0.0;4 / 29;19658;2021-10-27 17:44:52:731
0.651;9.495;0.232;9.783;-0.632;0.283;0.019;0.299;0.072;0.002;-0.058;-0.002;166.0;17.5;-32.2;19.8;147.5;3.8;-88.7;0.0;32.59;39.46886;-0.34088;0.5;NaN;0.0;7.5;0.0;4 / 29;19709;2021-10-27 17:44:52:782
0.651;9.526;0.256;9.778;-0.69;0.254;0.073;0.299;-0.003;0.007;-0.008;-0.002;166.0;17.2;-31.9;19.9;147.3;4.1;-88.9;0.0;32.59;39.46886;-0.34088;0.5;NaN;0.0;7.5;0.0;4 / 29;19758;2021-10-27 17:44:52:831
0.708;9.464;0.246;9.778;-0.718;0.239;0.003;0.326;0.009;0.009;0.058;-0.004;166.0;17.2;-31.6;19.5;147.5;3.9;-88.5;0.0;32.59;39.46886;-0.34088;0.5;NaN;0.0;7.5;0.0;4 / 29;19809;2021-10-27 17:44:52:882
0.691;9.485;0.282;9.778;-0.699;0.297;-0.013;0.286;-0.034;0.006;0.076;0.0;166.0;17.5;-31.9;19.4;148.9;4.1;-88.3;0.0;33.71;39.46886;-0.34088;0.5;NaN;0.0;7.5;0.0;4 / 29;19858;2021-10-27 17:44:52:931
0.682;9.485;0.225;9.778;-0.718;0.254;0.0;0.313;-0.005;0.003;0.07;0.0;166.0;17.6;-31.7;19.4;148.8;4.0;-88.6;0.0;33.71;39.46886;-0.34088;0.5;NaN;0.0;7.5;0.0;4 / 29;19908;2021-10-27 17:44:52:981
0.691;9.474;0.248;9.778;-0.704;0.239;0.014;0.313;0.013;0.003;0.07;0.0;166.0;17.5;-31.7;19.2;148.8;4.2;-88.4;0.0;33.71;39.46886;-0.34088;0.5;NaN;0.0;7.5;0.0;4 / 29;19958;2021-10-27 17:44:53:031
0.67;9.469;0.241;9.778;-0.704;0.254;0.016;0.299;0.002;0.003;0.07;0.0;173.0;17.5;-31.9;19.4;148.9;4.1;-88.3;0.0;33.71;39.46886;-0.34088;0.5;NaN;0.0;7.5;0.0;4 / 29;20008;2021-10-27 17:44:53:081
0.665;9.541;0.21;9.783;-0.675;0.211;0.018;0.285;0.099;-0.005;-0.015;0.004;173.0;17.4;-32.2;19.1;148.8;3.9;-88.8;0.0;33.71;39.46886;-0.34088;0.5;NaN;0.0;7.5;0.0;4 / 29;20058;2021-10-27 17:44:53:131
0.701;9.481;0.193;9.783;-0.69;0.211;0.074;0.299;0.055;0.009;-0.031;0.001;173.0;17.8;-32.3;19.2;148.7;4.1;-88.8;0.0;33.71;39.46887;-0.34088;0.5;NaN;0.0;7.4;0.0;4 / 29;20108;2021-10-27 17:44:53:181
0.67;9.495;0.213;9.778;-0.742;0.211;0.06;0.313;0.072;0.02;-0.045;-0.004;173.0;18.1;-31.7;19.3;148.8;3.9;-88.8;0.0;33.29;39.46887;-0.34088;0.5;NaN;0.0;7.4;0.0;4 / 29;20159;2021-10-27 17:44:53:232
0.689;9.471;0.256;9.778;-0.704;0.268;0.044;0.313;-0.017;0.017;-0.048;-0.006;173.0;18.4;-31.3;19.4;147.8;4.3;-88.8;0.0;33.29;39.46887;-0.34088;0.5;NaN;0.0;7.4;0.0;4 / 29;20208;2021-10-27 17:44:53:281
0.686;9.502;0.256;9.778;-0.718;0.211;0.027;0.286;0.017;0.004;-0.067;-0.005;173.0;18.0;-30.7;19.2;147.8;4.1;-88.8;0.0;33.29;39.46887;-0.34088;0.5;NaN;0.0;7.4;0.0;4 / 29;20259;2021-10-27 17:44:53:332
0.713;9.512;0.225;9.778;-0.718;0.225;-0.015;0.286;0.003;0.001;-0.063;-0.005;173.0;18.0;-30.8;19.1;147.9;3.9;-88.7;0.0;33.29;39.46887;-0.34088;0.5;NaN;0.0;7.4;0.0;4 / 29;20309;2021-10-27 17:44:53:382
0.665;9.493;0.27;9.778;-0.69;0.268;0.039;0.313;-0.021;-0.009;-0.029;-0.001;172.0;17.5;-31.3;19.5;147.9;4.1;-88.6;0.0;33.29;39.46887;-0.34088;0.5;NaN;0.0;7.4;0.0;4 / 29;20358;2021-10-27 17:44:53:431
0.725;9.488;0.196;9.778;-0.728;0.211;-0.002;0.3;0.007;-0.005;-0.008;0.002;172.0;17.5;-31.3;19.9;146.5;4.2;-88.7;0.0;33.29;39.46887;-0.34088;0.5;NaN;0.0;7.4;0.0;4 / 29;20409;2021-10-27 17:44:53:482
0.737;9.49;0.229;9.778;-0.728;0.225;0.015;0.327;0.01;0.0;0.042;0.008;172.0;17.3;-31.4;19.7;146.5;4.3;-88.7;0.0;33.29;39.46887;-0.34088;0.5;NaN;0.0;7.4;0.0;4 / 29;20458;2021-10-27 17:44:53:531
0.682;9.481;0.215;9.778;-0.704;0.196;0.019;0.286;0.012;0.002;0.064;0.008;172.0;17.5;-31.9;19.3;148.7;4.1;-88.7;0.0;33.92;39.46887;-0.34088;0.5;NaN;0.0;7.4;0.0;4 / 29;20508;2021-10-27 17:44:53:581
0.684;9.464;0.26;9.778;-0.69;0.239;0.008;0.313;0.012;0.004;0.047;0.009;172.0;17.5;-31.9;19.0;148.6;4.3;-88.8;0.0;33.92;39.46887;-0.34088;0.5;NaN;0.0;7.4;0.0;4 / 29;20559;2021-10-27 17:44:53:632
0.663;9.481;0.217;9.778;-0.704;0.239;0.025;0.299;-0.004;0.004;0.047;0.009;172.0;17.2;-31.9;18.8;148.8;3.9;-88.6;0.0;33.92;39.46887;-0.34088;0.5;NaN;0.0;7.4;0.0;4 / 29;20609;2021-10-27 17:44:53:682
0.73;9.476;0.21;9.778;-0.733;0.254;-0.001;0.299;-0.021;0.004;0.047;0.009;172.0;17.2;-31.6;19.5;147.3;4.4;-88.8;0.0;33.92;39.46887;-0.34088;0.5;NaN;0.0;7.4;0.0;4 / 29;20658;2021-10-27 17:44:53:731
0.667;9.493;0.251;9.783;-0.661;0.239;0.013;0.312;-0.008;0.004;0.047;0.009;169.0;17.5;-31.6;19.4;148.8;4.0;-88.5;0.0;33.92;39.46887;-0.34088;0.5;NaN;0.0;7.4;0.0;4 / 29;20708;2021-10-27 17:44:53:781
0.653;9.488;0.225;9.783;-0.675;0.239;0.054;0.285;0.032;0.001;0.003;0.0;169.0;17.8;-31.7;19.5;147.4;4.0;-88.7;0.0;33.92;39.46887;-0.34088;0.5;NaN;0.0;7.4;0.0;4 / 29;20758;2021-10-27 17:44:53:831
0.672;9.471;0.234;9.778;-0.704;0.268;0.04;0.258;-0.008;-0.002;0.006;-0.002;169.0;18.1;-31.7;19.2;148.7;3.9;-88.9;0.0;33.85;39.46887;-0.34088;0.5;NaN;0.0;7.4;0.0;4 / 29;20809;2021-10-27 17:44:53:882
0.737;9.517;0.213;9.778;-0.704;0.239;0.051;0.299;0.006;-0.001;0.006;-0.007;169.0;17.5;-31.7;19.1;148.8;4.1;-88.6;0.0;33.85;39.46887;-0.34088;0.5;NaN;0.0;7.4;0.0;4 / 29;20859;2021-10-27 17:44:53:932
0.718;9.531;0.239;9.778;-0.718;0.254;0.007;0.299;-0.02;-0.002;-0.019;-0.005;169.0;17.3;-31.6;19.0;148.8;4.2;-88.5;0.0;33.85;39.46887;-0.34088;0.5;NaN;0.0;7.4;0.0;4 / 29;20908;2021-10-27 17:44:53:981
0.677;9.507;0.217;9.778;-0.699;0.211;-0.022;0.286;0.021;-0.002;-0.009;-0.003;169.0;17.0;-31.7;19.2;148.7;4.2;-88.8;0.0;33.85;39.46887;-0.34088;0.5;NaN;0.0;7.4;0.0;4 / 29;20958;2021-10-27 17:44:54:031
0.639;9.49;0.251;9.783;-0.675;0.254;0.059;0.286;0.022;-0.001;-0.001;0.002;160.0;17.0;-31.6;19.5;148.7;4.1;-88.8;0.0;33.85;39.46887;-0.34088;0.5;NaN;0.0;7.4;0.0;4 / 29;21008;2021-10-27 17:44:54:081
0.737;9.493;0.234;9.778;-0.733;0.225;0.005;0.286;-0.005;0.004;0.042;0.002;160.0;17.3;-32.0;19.4;148.7;4.3;-88.7;0.0;33.85;39.46887;-0.34088;0.5;NaN;0.0;7.4;0.0;4 / 29;21058;2021-10-27 17:44:54:131
0.701;9.478;0.225;9.778;-0.69;0.239;0.034;0.299;-0.02;0.005;0.037;0.003;160.0;17.4;-31.6;19.5;147.5;4.0;-88.5;0.0;41.53;39.46887;-0.34087;0.5;NaN;0.0;7.3;0.0;4 / 29;21109;2021-10-27 17:44:54:182
0.682;9.502;0.225;9.778;-0.704;0.239;0.021;0.286;-0.007;0.003;0.037;0.002;160.0;17.6;-32.0;19.2;148.7;4.4;-88.6;0.0;41.53;39.46887;-0.34087;0.5;NaN;0.0;7.3;0.0;4 / 29;21158;2021-10-27 17:44:54:231
0.672;9.481;0.232;9.778;-0.704;0.196;0.008;0.285;0.02;0.002;0.028;0.002;160.0;17.5;-31.9;19.2;148.8;4.0;-88.7;0.0;41.53;39.46887;-0.34087;0.5;NaN;0.0;7.3;0.0;4 / 29;21208;2021-10-27 17:44:54:281
0.691;9.497;0.268;9.778;-0.699;0.268;0.022;0.272;0.007;0.002;0.028;0.002;160.0;17.4;-32.0;19.4;148.9;4.1;-88.4;0.0;41.53;39.46887;-0.34087;0.5;NaN;0.0;7.3;0.0;4 / 29;21258;2021-10-27 17:44:54:331
0.713;9.502;0.258;9.778;-0.728;0.239;0.009;0.299;-0.021;0.002;0.028;0.002;160.0;17.2;-31.9;19.5;147.5;4.1;-88.5;0.0;41.53;39.46887;-0.34087;0.5;NaN;0.0;7.3;0.0;4 / 29;21308;2021-10-27 17:44:54:381
0.718;9.488;0.215;9.778;-0.742;0.211;0.009;0.299;-0.007;0.002;0.028;0.002;158.0;17.5;-31.9;19.5;148.8;4.1;-88.6;0.0;41.53;39.46887;-0.34087;0.5;NaN;0.0;7.3;0.0;4 / 29;21358;2021-10-27 17:44:54:431
0.691;9.493;0.303;9.778;-0.713;0.254;0.009;0.272;-0.019;-0.009;0.011;0.001;158.0;17.5;-31.7;19.7;147.3;4.3;-88.8;0.0;41.53;39.46887;-0.34087;0.5;NaN;0.0;7.3;0.0;4 / 29;21409;2021-10-27 17:44:54:482
0.672;9.497;0.232;9.778;-0.685;0.239;0.023;0.285;0.028;-0.009;0.019;0.001;158.0;17.5;-31.6;19.5;147.4;4.0;-88.6;0.0;35.84;39.46887;-0.34087;0.5;NaN;0.0;7.3;0.0;4 / 29;21458;2021-10-27 17:44:54:531
0.725;9.497;0.28;9.778;-0.742;0.239;0.023;0.299;-0.035;-0.007;0.029;0.001;158.0;16.9;-31.3;19.6;146.8;3.9;-88.0;0.0;35.84;39.46887;-0.34087;0.5;NaN;0.0;7.3;0.0;4 / 29;21509;2021-10-27 17:44:54:582
0.698;9.478;0.241;9.778;-0.718;0.297;0.01;0.299;-0.03;-0.006;0.027;0.001;158.0;17.3;-31.6;19.4;148.7;4.5;-88.5;0.0;35.84;39.46887;-0.34087;0.5;NaN;0.0;7.3;0.0;4 / 29;21559;2021-10-27 17:44:54:632
0.675;9.464;0.299;9.778;-0.704;0.297;-0.003;0.298;-0.04;-0.007;0.029;0.003;158.0;17.5;-31.7;19.4;148.9;4.2;-88.3;0.0;35.84;39.46887;-0.34087;0.5;NaN;0.0;7.3;0.0;4 / 29;21609;2021-10-27 17:44:54:682
0.686;9.49;0.277;9.778;-0.718;0.268;0.026;0.285;-0.009;-0.01;-0.005;0.009;158.0;17.8;-31.9;19.3;148.8;4.2;-88.4;0.0;35.84;39.46887;-0.34087;0.5;NaN;0.0;7.3;0.0;4 / 29;21658;2021-10-27 17:44:54:731
0.691;9.485;0.26;9.778;-0.699;0.268;0.017;0.284;0.01;-0.01;-0.011;0.004;152.0;17.6;-31.7;19.4;148.8;4.2;-88.5;0.0;35.84;39.46887;-0.34087;0.5;NaN;0.0;7.3;0.0;4 / 29;21708;2021-10-27 17:44:54:781
0.665;9.49;0.248;9.783;-0.675;0.211;0.032;0.311;0.001;-0.009;-0.027;0.003;152.0;17.0;-31.6;19.2;148.9;4.1;-88.4;0.0;31.56;39.46887;-0.34087;0.5;NaN;0.0;7.3;0.0;4 / 29;21759;2021-10-27 17:44:54:832
0.703;9.476;0.253;9.778;-0.733;0.254;0.018;0.297;-0.011;-0.005;-0.014;-0.001;152.0;16.8;-31.9;19.3;148.8;4.3;-88.4;0.0;31.56;39.46887;-0.34087;0.5;NaN;0.0;7.3;0.0;4 / 29;21808;2021-10-27 17:44:54:881
0.691;9.476;0.208;9.783;-0.675;0.211;0.058;0.311;0.057;-0.003;-0.011;-0.002;152.0;17.5;-31.4;19.1;148.0;3.9;-88.6;0.0;31.56;39.46887;-0.34087;0.5;NaN;0.0;7.3;0.0;4 / 29;21858;2021-10-27 17:44:54:931
0.663;9.497;0.275;9.778;-0.69;0.268;0.056;0.298;-0.025;-0.003;-0.011;-0.002;152.0;18.0;-31.6;19.1;148.8;4.1;-88.5;0.0;31.56;39.46887;-0.34087;0.5;NaN;0.0;7.3;0.0;4 / 29;21909;2021-10-27 17:44:54:982
0.672;9.495;0.217;9.783;-0.685;0.211;0.026;0.284;0.043;-0.003;-0.011;-0.002;152.0;17.8;-31.6;18.8;148.7;4.1;-88.8;0.0;31.56;39.46887;-0.34087;0.5;NaN;0.0;7.3;0.0;4 / 29;21958;2021-10-27 17:44:55:031
0.718;9.505;0.248;9.778;-0.699;0.225;0.037;0.271;0.015;-0.002;-0.049;-0.006;151.0;17.6;-31.7;18.7;148.7;4.0;-88.8;0.0;31.56;39.46887;-0.34087;0.5;NaN;0.0;7.3;0.0;4 / 29;22008;2021-10-27 17:44:55:081
0.689;9.509;0.232;9.778;-0.718;0.239;0.035;0.298;0.042;-0.003;-0.071;-0.006;151.0;17.6;-31.6;18.8;148.7;4.2;-88.6;0.0;31.56;39.46887;-0.34087;0.5;NaN;0.0;7.3;0.0;4 / 29;22060;2021-10-27 17:44:55:133
0.672;9.502;0.241;9.778;-0.69;0.254;0.033;0.285;0.012;0.001;-0.065;-0.005;151.0;17.7;-31.3;18.7;148.0;4.2;-88.4;0.0;32.6;39.46887;-0.34087;0.5;NaN;0.0;7.3;0.0;4 / 29;22109;2021-10-27 17:44:55:182
0.655;9.476;0.268;9.778;-0.718;0.268;-0.008;0.285;-0.031;0.0;-0.055;-0.004;151.0;17.8;-31.4;18.8;148.0;4.3;-88.3;0.0;32.6;39.46887;-0.34087;0.5;NaN;0.0;7.3;0.0;4 / 29;22159;2021-10-27 17:44:55:232
0.689;9.497;0.239;9.773;-0.742;0.278;-0.023;0.285;0.008;-0.001;-0.05;-0.001;151.0;17.9;-31.6;18.5;148.0;4.1;-88.3;0.0;32.6;39.46887;-0.34087;0.5;NaN;0.0;7.3;0.0;4 / 29;22208;2021-10-27 17:44:55:281
0.696;9.509;0.251;9.778;-0.718;0.297;0.005;0.271;0.008;-0.006;-0.041;0.003;151.0;18.1;-31.7;19.0;148.9;4.2;-88.3;0.0;32.6;39.46887;-0.34087;0.5;NaN;0.0;7.3;0.0;4 / 29;22259;2021-10-27 17:44:55:332
0.655;9.452;0.289;9.778;-0.718;0.326;0.009;0.298;0.01;-0.006;-0.048;0.005;151.0;18.1;-31.9;19.0;148.8;4.3;-88.3;0.0;32.6;39.46887;-0.34087;0.5;NaN;0.0;7.3;0.0;4 / 29;22308;2021-10-27 17:44:55:381
0.67;9.462;0.282;9.778;-0.718;0.254;0.038;0.312;0.011;-0.005;-0.045;0.004;149.0;17.8;-31.7;18.6;148.8;3.9;-88.7;0.0;32.6;39.46887;-0.34087;0.5;NaN;0.0;7.3;0.0;4 / 29;22358;2021-10-27 17:44:55:431
0.742;9.512;0.275;9.778;-0.704;0.283;0.04;0.298;0.011;-0.003;-0.023;0.002;149.0;17.8;-31.9;19.0;148.8;4.0;-88.6;0.0;30.64;39.46887;-0.34087;0.5;NaN;0.0;7.3;0.0;4 / 29;22408;2021-10-27 17:44:55:481
0.677;9.485;0.263;9.778;-0.69;0.268;0.027;0.257;0.039;-0.002;-0.01;0.0;149.0;17.8;-31.7;19.3;148.9;3.9;-88.5;0.0;30.64;39.46887;-0.34087;0.5;NaN;0.0;7.3;0.0;4 / 29;22458;2021-10-27 17:44:55:531
0.71;9.536;0.256;9.778;-0.699;0.254;0.012;0.284;0.026;-0.001;-0.002;-0.002;149.0;17.9;-32.0;19.7;147.4;4.2;-88.5;0.0;30.64;39.46887;-0.34087;0.5;NaN;0.0;7.3;0.0;4 / 29;22508;2021-10-27 17:44:55:581
0.686;9.485;0.277;9.778;-0.704;0.297;0.012;0.298;-0.015;0.003;0.037;0.0;149.0;17.9;-32.2;19.7;147.5;4.3;-88.2;0.0;30.64;39.46887;-0.34087;0.5;NaN;0.0;7.3;0.0;4 / 29;22558;2021-10-27 17:44:55:631
0.677;9.5;0.234;9.783;-0.675;0.268;0.026;0.312;0.052;0.004;0.059;0.002;149.0;17.8;-32.0;19.3;148.6;4.5;-88.8;0.0;30.64;39.46887;-0.34087;0.5;NaN;0.0;7.3;0.0;4 / 29;22608;2021-10-27 17:44:55:681
0.667;9.5;0.239;9.783;-0.646;0.239;0.068;0.284;0.05;0.008;0.048;0.004;149.0;17.9;-31.9;19.5;147.5;3.8;-88.6;0.0;30.64;39.46887;-0.34087;0.5;NaN;0.0;7.3;0.0;4 / 29;22659;2021-10-27 17:44:55:732
0.677;9.459;0.222;9.783;-0.675;0.239;0.082;0.339;0.017;0.013;0.025;0.001;151.0;17.8;-31.6;19.9;147.5;4.2;-88.4;0.0;30.64;39.46887;-0.34087;0.5;NaN;0.0;7.3;0.0;4 / 29;22709;2021-10-27 17:44:55:782
0.715;9.469;0.256;9.778;-0.713;0.254;0.039;0.298;-0.028;0.01;0.029;-0.005;151.0;17.6;-31.4;19.8;147.6;3.9;-88.3;0.0;29.83;39.46887;-0.34087;0.5;NaN;0.0;7.3;0.0;4 / 29;22758;2021-10-27 17:44:55:831
0.703;9.502;0.28;9.773;-0.742;0.292;0.008;0.299;-0.03;0.005;0.037;-0.004;151.0;17.7;-31.3;19.4;146.5;4.4;-88.4;0.0;29.83;39.46887;-0.34087;0.5;NaN;0.0;7.3;0.0;4 / 29;22808;2021-10-27 17:44:55:881
0.682;9.512;0.229;9.778;-0.718;0.239;0.034;0.299;0.027;-0.002;0.04;-0.001;151.0;17.5;-31.6;18.5;148.8;4.0;-88.6;0.0;29.83;39.46887;-0.34087;0.5;NaN;0.0;7.3;0.0;4 / 29;22859;2021-10-27 17:44:55:932
0.667;9.476;0.227;9.783;-0.661;0.254;0.048;0.244;0.056;-0.001;0.025;0.002;151.0;17.5;-31.9;19.0;148.7;4.2;-88.8;0.0;29.83;39.46887;-0.34087;0.5;NaN;0.0;7.3;0.0;4 / 29;22908;2021-10-27 17:44:55:981
0.665;9.466;0.234;9.778;-0.718;0.254;0.048;0.326;0.043;-0.001;-0.011;0.001;151.0;17.8;-32.2;19.4;148.7;3.9;-88.9;0.0;29.83;39.46887;-0.34087;0.5;NaN;0.0;7.3;0.0;4 / 29;22958;2021-10-27 17:44:56:031
0.691;9.495;0.232;9.778;-0.704;0.254;0.048;0.299;0.014;0.004;-0.023;-0.002;151.0;18.1;-32.0;19.9;147.5;3.9;-88.4;0.0;29.83;39.46887;-0.34087;0.5;NaN;0.0;7.3;0.0;4 / 29;23008;2021-10-27 17:44:56:081
0.694;9.509;0.236;9.778;-0.718;0.268;-0.021;0.299;0.039;0.005;-0.011;-0.003;151.0;17.9;-31.6;19.7;147.5;4.2;-88.4;0.0;29.73;39.46887;-0.34085;0.5;NaN;0.0;7.3;0.0;4 / 29;23059;2021-10-27 17:44:56:132
0.696;9.49;0.251;9.778;-0.733;0.254;-0.009;0.285;0.009;0.005;-0.002;-0.001;151.0;17.7;-31.4;19.7;146.4;4.3;-88.8;0.0;29.73;39.46887;-0.34085;0.5;NaN;0.0;7.3;0.0;4 / 29;23108;2021-10-27 17:44:56:181
0.665;9.5;0.287;9.783;-0.675;0.254;0.032;0.299;-0.02;0.005;0.012;0.0;151.0;17.5;-31.3;19.3;146.6;3.9;-88.6;0.0;29.73;39.46887;-0.34085;0.5;NaN;0.0;7.3;0.0;4 / 29;23159;2021-10-27 17:44:56:232
0.744;9.497;0.174;9.778;-0.728;0.225;-0.035;0.285;0.02;0.005;0.012;0.0;151.0;17.8;-31.3;19.4;148.0;3.9;-88.5;0.0;29.73;39.46887;-0.34085;0.5;NaN;0.0;7.3;0.0;4 / 29;23208;2021-10-27 17:44:56:281
0.686;9.526;0.256;9.778;-0.699;0.254;0.024;0.258;-0.005;0.005;0.012;0.0;151.0;17.6;-31.4;19.5;146.6;4.0;-88.6;0.0;29.73;39.46887;-0.34085;0.5;NaN;0.0;7.3;0.0;4 / 29;23259;2021-10-27 17:44:56:332
0.639;9.485;0.27;9.783;-0.661;0.283;0.067;0.312;-0.044;-0.004;0.016;0.005;151.0;17.7;-31.4;19.8;146.7;3.8;-88.4;0.0;29.73;39.46887;-0.34085;0.5;NaN;0.0;7.3;0.0;4 / 29;23308;2021-10-27 17:44:56:381
0.689;9.488;0.246;9.778;-0.718;0.225;0.014;0.325;0.026;-0.004;0.015;0.004;163.0;17.8;-31.1;19.9;146.5;4.2;-88.8;0.0;29.73;39.46887;-0.34085;0.5;NaN;0.0;7.3;0.0;4 / 29;23359;2021-10-27 17:44:56:432
0.725;9.5;0.292;9.778;-0.69;0.239;0.0;0.298;-0.025;-0.005;0.024;-0.001;163.0;18.1;-31.3;19.8;146.5;4.2;-88.6;0.0;30.02;39.46887;-0.34085;0.5;NaN;0.0;7.3;0.0;4 / 29;23409;2021-10-27 17:44:56:482
0.663;9.476;0.227;9.783;-0.675;0.211;0.04;0.298;0.046;-0.005;0.024;-0.001;163.0;17.8;-31.3;19.5;146.5;3.9;-88.8;0.0;30.02;39.46887;-0.34085;0.5;NaN;0.0;7.3;0.0;4 / 29;23458;2021-10-27 17:44:56:531
0.658;9.476;0.246;9.783;-0.69;0.225;0.067;0.285;-0.007;-0.001;0.003;-0.001;163.0;17.8;-31.0;19.6;146.7;3.9;-88.4;0.0;30.02;39.46887;-0.34085;0.5;NaN;0.0;7.3;0.0;4 / 29;23509;2021-10-27 17:44:56:582
0.715;9.512;0.196;9.783;-0.675;0.211;0.038;0.271;0.03;0.005;-0.009;-0.002;163.0;17.6;-31.0;19.7;146.5;4.1;-88.7;0.0;30.02;39.46887;-0.34085;0.5;NaN;0.0;7.3;0.0;4 / 29;23558;2021-10-27 17:44:56:631
0.732;9.497;0.241;9.773;-0.742;0.278;0.023;0.285;-0.056;0.009;-0.005;-0.006;163.0;18.0;-30.7;19.4;146.7;4.0;-88.4;0.0;30.02;39.46887;-0.34085;0.5;NaN;0.0;7.3;0.0;4 / 29;23609;2021-10-27 17:44:56:682
0.701;9.481;0.263;9.778;-0.718;0.225;0.02;0.34;0.05;0.006;-0.011;-0.005;163.0;17.7;-31.0;19.1;147.9;4.2;-88.7;0.0;30.02;39.46887;-0.34085;0.5;NaN;0.0;7.3;0.0;4 / 29;23658;2021-10-27 17:44:56:731
0.679;9.512;0.263;9.778;-0.699;0.254;0.005;0.313;0.02;0.002;-0.028;-0.003;168.0;17.3;-30.8;18.8;147.9;4.2;-88.7;0.0;30.32;39.46887;-0.34085;0.5;NaN;0.0;7.3;0.0;4 / 29;23708;2021-10-27 17:44:56:781
0.682;9.502;0.189;9.783;-0.675;0.239;0.058;0.326;0.033;-0.002;-0.038;-0.003;168.0;16.9;-31.6;18.8;147.9;4.0;-88.9;0.0;30.32;39.46887;-0.34085;0.5;NaN;0.0;7.3;0.0;4 / 29;23758;2021-10-27 17:44:56:831
0.651;9.476;0.215;9.783;-0.675;0.225;0.03;0.299;-0.008;-0.002;-0.035;-0.002;168.0;17.5;-31.9;19.0;148.8;4.2;-88.6;0.0;30.32;39.46887;-0.34085;0.5;NaN;0.0;7.3;0.0;4 / 29;23809;2021-10-27 17:44:56:882
0.739;9.507;0.222;9.778;-0.728;0.225;-0.012;0.313;0.046;-0.002;-0.035;-0.002;168.0;17.8;-32.0;19.2;148.7;4.3;-88.7;0.0;30.32;39.46887;-0.34085;0.5;NaN;0.0;7.3;0.0;4 / 29;23858;2021-10-27 17:44:56:931
0.701;9.5;0.196;9.778;-0.733;0.168;0.04;0.272;0.045;-0.002;-0.035;-0.002;168.0;18.1;-31.7;19.4;148.7;4.0;-88.8;0.0;30.32;39.46887;-0.34085;0.5;NaN;0.0;7.3;0.0;4 / 29;23908;2021-10-27 17:44:56:981
0.672;9.512;0.196;9.778;-0.713;0.196;-0.015;0.3;0.07;0.005;-0.019;-0.003;168.0;18.1;-31.4;19.3;148.5;4.2;-89.2;0.0;30.32;39.46887;-0.34085;0.5;NaN;0.0;7.3;0.0;4 / 29;23959;2021-10-27 17:44:57:032
0.66;9.495;0.208;9.783;-0.675;0.254;0.025;0.313;-0.056;0.002;-0.042;-0.002;174.0;18.1;-31.1;19.1;147.8;4.1;-88.8;0.0;30.49;39.46887;-0.34085;0.5;NaN;0.0;7.3;0.0;4 / 29;24008;2021-10-27 17:44:57:081
0.698;9.5;0.22;9.778;-0.742;0.182;-0.016;0.3;0.064;0.001;-0.047;0.004;174.0;18.1;-31.0;19.1;147.7;4.3;-88.9;0.0;30.49;39.46887;-0.34085;0.5;NaN;0.0;7.3;0.0;4 / 29;24058;2021-10-27 17:44:57:131
0.67;9.493;0.21;9.778;-0.733;0.239;0.0;0.286;-0.006;0.0;-0.04;0.005;174.0;18.3;-30.8;19.1;147.9;4.3;-88.6;0.0;30.49;39.46889;-0.34084;0.5;NaN;0.0;7.2;0.0;4 / 29;24108;2021-10-27 17:44:57:181
0.639;9.497;0.213;9.778;-0.718;0.196;0.059;0.286;-0.008;0.0;-0.033;0.005;174.0;18.0;-31.4;19.7;146.5;3.9;-88.8;0.0;30.49;39.46889;-0.34084;0.5;NaN;0.0;7.2;0.0;4 / 29;24159;2021-10-27 17:44:57:232
0.694;9.514;0.205;9.783;-0.661;0.211;0.061;0.313;0.032;0.0;-0.02;0.003;174.0;18.0;-31.4;19.4;147.4;4.2;-88.7;0.0;30.49;39.46889;-0.34084;0.5;NaN;0.0;7.2;0.0;4 / 29;24208;2021-10-27 17:44:57:281
0.682;9.462;0.248;9.783;-0.661;0.268;0.034;0.299;0.005;0.0;0.0;0.0;174.0;17.4;-31.4;19.6;146.7;3.9;-88.4;0.0;30.49;39.46889;-0.34084;0.5;NaN;0.0;7.2;0.0;4 / 29;24258;2021-10-27 17:44:57:331
0.651;9.481;0.213;9.778;-0.704;0.211;0.031;0.286;0.017;0.004;0.035;-0.007;174.0;17.2;-31.1;19.4;147.9;4.0;-88.8;0.0;30.49;39.46889;-0.34084;0.5;NaN;0.0;7.2;0.0;4 / 29;24309;2021-10-27 17:44:57:382
0.727;9.49;0.191;9.778;-0.718;0.182;0.014;0.259;0.016;0.008;0.081;-0.004;177.0;17.4;-30.8;19.8;146.5;4.0;-88.8;0.0;30.81;39.46889;-0.34084;0.5;NaN;0.0;7.2;0.0;4 / 29;24358;2021-10-27 17:44:57:431
0.634;9.509;0.299;9.783;-0.675;0.268;0.026;0.273;-0.039;0.008;0.094;0.001;177.0;17.5;-31.1;19.7;146.5;4.3;-88.7;0.0;30.81;39.46889;-0.34084;0.5;NaN;0.0;7.2;0.0;4 / 29;24408;2021-10-27 17:44:57:481
0.698;9.497;0.225;9.778;-0.713;0.254;0.012;0.327;-0.012;0.008;0.094;0.001;177.0;18.1;-31.1;19.7;146.6;4.2;-88.5;0.0;30.81;39.46889;-0.34084;0.5;NaN;0.0;7.2;0.0;4 / 29;24459;2021-10-27 17:44:57:532
0.694;9.493;0.227;9.778;-0.713;0.239;-0.001;0.3;-0.008;0.008;0.094;0.001;177.0;18.1;-31.4;19.5;146.5;4.1;-88.7;0.0;30.81;39.46889;-0.34084;0.5;NaN;0.0;7.2;0.0;4 / 29;24509;2021-10-27 17:44:57:582
0.658;9.512;0.239;9.783;-0.646;0.239;0.054;0.286;0.023;0.008;0.094;0.001;177.0;17.9;-31.6;19.8;147.5;4.1;-88.5;0.0;30.81;39.46889;-0.34084;0.5;NaN;0.0;7.2;0.0;4 / 29;24558;2021-10-27 17:44:57:631
0.689;9.476;0.227;9.783;-0.69;0.196;0.027;0.313;0.012;-0.007;-0.019;0.0;177.0;18.1;-31.6;19.4;147.5;3.9;-88.6;0.0;30.81;39.46889;-0.34084;0.5;NaN;0.0;7.2;0.0;4 / 29;24608;2021-10-27 17:44:57:681
0.742;9.469;0.253;9.778;-0.742;0.239;0.0;0.3;-0.027;-0.004;-0.024;-0.002;177.0;17.8;-31.7;19.7;147.5;4.1;-88.4;0.0;30.81;39.46889;-0.34084;0.5;NaN;0.0;7.2;0.0;4 / 29;24659;2021-10-27 17:44:57:732
0.756;9.485;0.222;9.778;-0.685;0.239;-0.028;0.272;-0.026;-0.003;-0.02;-0.001;177.0;17.8;-31.6;19.7;147.4;4.1;-88.6;0.0;39.8;39.46889;-0.34084;0.5;NaN;0.0;7.2;0.0;4 / 29;24708;2021-10-27 17:44:57:781
0.682;9.478;0.232;9.778;-0.699;0.268;-0.001;0.286;-0.025;-0.004;-0.019;0.0;177.0;17.9;-31.6;19.6;148.8;4.1;-88.6;0.0;39.8;39.46889;-0.34084;0.5;NaN;0.0;7.2;0.0;4 / 29;24759;2021-10-27 17:44:57:832
0.641;9.471;0.205;9.783;-0.661;0.225;0.015;0.327;0.044;-0.003;-0.009;0.005;177.0;17.9;-31.4;19.4;146.4;4.1;-89.0;0.0;39.8;39.46889;-0.34084;0.5;NaN;0.0;7.2;0.0;4 / 29;24809;2021-10-27 17:44:57:882
0.682;9.485;0.217;9.778;-0.704;0.211;0.043;0.313;0.018;-0.002;-0.015;-0.001;177.0;18.0;-31.6;19.1;148.8;3.9;-88.8;0.0;39.8;39.46889;-0.34084;0.5;NaN;0.0;7.2;0.0;4 / 29;24859;2021-10-27 17:44:57:932
0.708;9.519;0.239;9.778;-0.69;0.254;0.002;0.272;0.004;0.0;-0.018;-0.001;177.0;17.8;-31.4;19.4;147.9;3.9;-88.7;0.0;39.8;39.46889;-0.34084;0.5;NaN;0.0;7.2;0.0;4 / 29;24908;2021-10-27 17:44:57:981
0.708;9.512;0.246;9.778;-0.728;0.211;0.042;0.286;0.003;-0.001;-0.026;-0.002;177.0;18.1;-31.3;19.5;148.0;4.3;-88.3;0.0;39.8;39.46889;-0.34084;0.5;NaN;0.0;7.2;0.0;4 / 29;24959;2021-10-27 17:44:58:032
0.701;9.464;0.203;9.778;-0.742;0.225;0.001;0.327;0.043;-0.001;-0.02;-0.001;175.0;18.1;-31.4;19.4;146.5;4.2;-88.7;0.0;31.59;39.46889;-0.34084;0.5;NaN;0.0;7.2;0.0;4 / 29;25008;2021-10-27 17:44:58:081
0.675;9.524;0.265;9.778;-0.699;0.254;-0.013;0.299;-0.011;-0.002;-0.016;0.001;175.0;18.1;-31.4;19.1;148.0;4.1;-88.5;0.0;31.59;39.46889;-0.34084;0.5;NaN;0.0;7.2;0.0;4 / 29;25059;2021-10-27 17:44:58:132
0.682;9.478;0.213;9.778;-0.718;0.139;0.003;0.313;0.099;-0.002;-0.016;0.001;175.0;17.9;-31.4;19.4;147.9;3.9;-88.8;0.0;31.59;39.46889;-0.34084;0.5;NaN;0.0;7.2;0.0;4 / 29;25109;2021-10-27 17:44:58:182
0.66;9.488;0.222;9.778;-0.69;0.225;0.031;0.313;0.044;-0.002;-0.016;0.001;175.0;17.8;-31.1;19.7;146.5;4.1;-88.8;0.0;31.59;39.46889;-0.34084;0.5;NaN;0.0;7.2;0.0;4 / 29;25158;2021-10-27 17:44:58:231
0.686;9.514;0.201;9.778;-0.704;0.182;-0.008;0.299;0.028;-0.002;-0.016;0.001;175.0;17.6;-31.1;19.7;146.6;3.9;-88.6;0.0;31.59;39.46889;-0.34084;0.5;NaN;0.0;7.2;0.0;4 / 29;25209;2021-10-27 17:44:58:282
0.686;9.462;0.284;9.778;-0.69;0.254;0.034;0.286;-0.022;0.02;0.012;0.002;175.0;17.6;-31.0;19.7;146.7;3.9;-88.4;0.0;31.59;39.46889;-0.34084;0.5;NaN;0.0;7.2;0.0;4 / 29;25258;2021-10-27 17:44:58:331
0.73;9.481;0.229;9.778;-0.713;0.225;-0.006;0.286;-0.001;0.011;0.044;0.002;175.0;17.8;-31.0;19.4;147.8;4.5;-88.6;0.0;31.59;39.46889;-0.34084;0.5;NaN;0.0;7.2;0.0;4 / 29;25308;2021-10-27 17:44:58:381
0.703;9.469;0.265;9.778;-0.69;0.268;0.021;0.299;-0.017;0.007;0.031;0.002;170.0;18.3;-31.4;19.3;148.7;4.2;-88.8;0.0;31.15;39.46889;-0.34084;0.5;NaN;0.0;7.2;0.0;4 / 29;25359;2021-10-27 17:44:58:432
0.713;9.483;0.179;9.783;-0.704;0.168;-0.006;0.313;0.014;-0.007;0.009;0.001;170.0;18.1;-31.9;19.2;148.7;4.3;-88.7;0.0;31.15;39.46889;-0.34084;0.5;NaN;0.0;7.2;0.0;4 / 29;25408;2021-10-27 17:44:58:481
0.691;9.483;0.248;9.778;-0.69;0.239;0.049;0.299;0.003;-0.007;-0.038;0.0;170.0;18.1;-32.2;19.1;148.9;3.9;-88.5;0.0;31.15;39.46889;-0.34084;0.5;NaN;0.0;7.2;0.0;4 / 29;25459;2021-10-27 17:44:58:532
0.66;9.49;0.215;9.783;-0.661;0.254;0.022;0.286;0.031;-0.006;-0.047;-0.002;170.0;17.5;-31.9;19.1;148.7;4.1;-88.8;0.0;31.15;39.46889;-0.34084;0.5;NaN;0.0;7.2;0.0;4 / 29;25508;2021-10-27 17:44:58:581
0.665;9.476;0.239;9.783;-0.69;0.196;0.061;0.286;-0.009;-0.002;-0.032;-0.01;170.0;17.6;-31.4;19.0;148.8;3.9;-88.7;0.0;31.15;39.46889;-0.34084;0.5;NaN;0.0;7.2;0.0;4 / 29;25558;2021-10-27 17:44:58:631
0.698;9.519;0.236;9.778;-0.718;0.268;0.042;0.313;0.004;0.0;-0.014;-0.01;170.0;17.5;-31.3;19.0;147.9;4.3;-88.5;0.0;31.15;39.46889;-0.34084;0.5;NaN;0.0;7.2;0.0;4 / 29;25608;2021-10-27 17:44:58:681
0.646;9.49;0.215;9.778;-0.718;0.196;0.012;0.3;0.031;0.001;0.009;-0.006;170.0;17.8;-31.3;19.4;147.8;4.2;-88.8;0.0;43.37;39.46889;-0.34084;0.5;NaN;0.0;7.2;0.0;4 / 29;25659;2021-10-27 17:44:58:732
0.682;9.45;0.272;9.778;-0.704;0.254;-0.045;0.314;-0.023;0.001;0.013;-0.001;158.0;17.8;-31.6;19.1;148.7;4.5;-88.5;0.0;43.37;39.46889;-0.34084;0.5;NaN;0.0;7.2;0.0;4 / 29;25709;2021-10-27 17:44:58:782
0.696;9.493;0.21;9.778;-0.704;0.182;0.025;0.327;0.031;0.001;0.013;-0.001;158.0;17.9;-31.6;19.4;148.6;4.2;-88.9;0.0;43.37;39.46889;-0.34084;0.5;NaN;0.0;7.2;0.0;4 / 29;25759;2021-10-27 17:44:58:832
0.653;9.495;0.222;9.783;-0.646;0.168;0.041;0.272;0.072;0.002;0.004;0.004;158.0;18.0;-31.6;19.3;148.6;3.9;-89.0;0.0;43.37;39.46889;-0.34084;0.5;NaN;0.0;7.2;0.0;4 / 29;25808;2021-10-27 17:44:58:881
0.684;9.457;0.181;9.783;-0.69;0.211;0.043;0.313;0.028;0.002;0.004;0.004;158.0;17.8;-31.1;19.3;147.9;4.0;-88.8;0.0;43.37;39.46889;-0.34084;0.5;NaN;0.0;7.2;0.0;4 / 29;25858;2021-10-27 17:44:58:931
0.677;9.49;0.239;9.778;-0.704;0.268;0.069;0.314;-0.047;0.01;-0.016;-0.004;158.0;17.6;-31.1;19.2;148.0;3.8;-88.6;0.0;43.37;39.46889;-0.34084;0.5;NaN;0.0;7.2;0.0;4 / 29;25908;2021-10-27 17:44:58:981
0.715;9.507;0.213;9.778;-0.757;0.153;-0.029;0.287;-0.01;0.004;-0.003;-0.003;158.0;17.6;-31.3;19.5;147.3;4.2;-88.8;0.0;34.88;39.46889;-0.34084;0.5;NaN;0.0;7.2;0.0;4 / 29;25958;2021-10-27 17:44:59:031
0.675;9.485;0.246;9.778;-0.704;0.239;-0.002;0.314;-0.038;0.002;-0.001;0.0;149.0;17.8;-31.6;19.4;146.5;4.3;-88.6;0.0;34.88;39.46889;-0.34084;0.5;NaN;0.0;7.2;0.0;4 / 29;26008;2021-10-27 17:44:59:081
0.653;9.447;0.236;9.778;-0.718;0.211;0.041;0.3;-0.004;-0.011;0.021;0.002;149.0;17.8;-32.0;19.5;147.5;3.9;-88.5;0.0;34.88;39.46889;-0.34084;0.5;NaN;0.0;7.2;0.0;5 / 29;26058;2021-10-27 17:44:59:131
0.698;9.49;0.172;9.778;-0.704;0.211;-0.012;0.286;0.068;-0.007;0.023;0.007;149.0;17.9;-31.6;18.9;148.6;4.2;-88.9;0.0;34.88;39.46886;-0.34075;0.5;NaN;0.0;7.1;0.0;5 / 29;26109;2021-10-27 17:44:59:182
0.624;9.497;0.289;9.783;-0.661;0.239;0.072;0.286;-0.051;-0.005;0.007;0.002;149.0;17.9;-31.6;19.1;148.9;3.9;-88.5;0.0;34.88;39.46886;-0.34075;0.5;NaN;0.0;7.1;0.0;5 / 29;26159;2021-10-27 17:44:59:232
0.725;9.529;0.193;9.778;-0.728;0.211;0.018;0.259;0.032;-0.003;-0.005;0.0;149.0;17.8;-31.3;19.0;148.7;3.9;-88.8;0.0;34.88;39.46886;-0.34075;0.5;NaN;0.0;7.1;0.0;5 / 29;26208;2021-10-27 17:44:59:281
0.706;9.497;0.284;9.773;-0.742;0.306;0.005;0.327;-0.036;-0.002;-0.034;0.0;149.0;17.8;-31.3;19.5;146.6;4.3;-88.2;0.0;34.88;39.46886;-0.34075;0.5;NaN;0.0;7.1;0.0;5 / 29;26258;2021-10-27 17:44:59:331
0.686;9.471;0.232;9.778;-0.704;0.239;0.018;0.313;-0.008;-0.003;-0.018;-0.002;149.0;17.8;-31.4;19.4;148.0;3.9;-88.6;0.0;34.02;39.46886;-0.34075;0.5;NaN;0.0;7.1;0.0;5 / 29;26308;2021-10-27 17:44:59:381
0.722;9.509;0.248;9.778;-0.699;0.292;0.017;0.272;-0.059;-0.005;-0.008;-0.001;149.0;18.1;-31.9;19.7;147.4;4.3;-88.6;0.0;34.02;39.46886;-0.34075;0.5;NaN;0.0;7.1;0.0;5 / 29;26358;2021-10-27 17:44:59:431
0.646;9.505;0.203;9.783;-0.675;0.196;0.058;0.299;0.041;-0.005;-0.008;-0.001;149.0;18.0;-31.9;19.7;147.6;3.9;-88.3;0.0;34.02;39.46886;-0.34075;0.5;NaN;0.0;7.1;0.0;5 / 29;26408;2021-10-27 17:44:59:481
0.665;9.481;0.215;9.783;-0.661;0.225;0.056;0.299;0.018;-0.005;-0.008;-0.001;149.0;18.2;-32.0;19.9;147.3;3.9;-88.9;0.0;34.02;39.46886;-0.34075;0.5;NaN;0.0;7.1;0.0;5 / 29;26459;2021-10-27 17:44:59:532
0.643;9.457;0.253;9.783;-0.646;0.225;0.042;0.299;0.019;-0.005;-0.008;-0.001;149.0;18.1;-31.7;19.9;147.5;3.8;-88.7;0.0;34.02;39.46886;-0.34075;0.5;NaN;0.0;7.1;0.0;5 / 29;26508;2021-10-27 17:44:59:581
0.744;9.497;0.21;9.778;-0.718;0.211;-0.019;0.272;0.006;0.005;0.034;-0.01;149.0;17.9;-31.4;20.0;146.6;3.9;-88.5;0.0;34.02;39.46886;-0.34075;0.5;NaN;0.0;7.1;0.0;5 / 29;26558;2021-10-27 17:44:59:631
0.713;9.471;0.248;9.778;-0.742;0.254;-0.009;0.286;0.004;0.004;0.033;-0.005;149.0;17.8;-31.1;20.0;146.4;4.3;-88.8;0.0;31.26;39.46886;-0.34075;0.5;NaN;0.0;7.1;0.0;5 / 29;26608;2021-10-27 17:44:59:681
0.679;9.478;0.244;9.783;-0.661;0.239;0.03;0.327;-0.023;0.002;0.03;-0.001;149.0;17.8;-31.1;19.9;146.6;3.9;-88.6;0.0;31.26;39.46886;-0.34075;0.5;NaN;0.0;7.1;0.0;5 / 29;26659;2021-10-27 17:44:59:732
0.691;9.488;0.232;9.778;-0.704;0.239;-0.007;0.3;-0.009;0.001;0.033;0.008;149.0;17.8;-31.3;19.8;146.6;4.2;-88.5;0.0;31.26;39.46886;-0.34075;0.5;NaN;0.0;7.1;0.0;5 / 29;26709;2021-10-27 17:44:59:782
0.689;9.507;0.227;9.783;-0.69;0.211;0.023;0.3;0.034;-0.002;0.039;0.006;149.0;17.8;-31.6;19.5;147.4;4.1;-88.5;0.0;31.26;39.46886;-0.34075;0.5;NaN;0.0;7.1;0.0;5 / 29;26758;2021-10-27 17:44:59:831
0.696;9.502;0.234;9.778;-0.704;0.211;0.024;0.3;0.008;-0.001;0.016;0.003;149.0;17.5;-31.3;19.6;146.5;4.0;-88.8;0.0;31.26;39.46886;-0.34075;0.5;NaN;0.0;7.1;0.0;5 / 29;26809;2021-10-27 17:44:59:882
0.648;9.509;0.208;9.783;-0.69;0.225;0.011;0.299;0.022;-0.001;0.009;0.002;149.0;17.3;-31.1;19.5;146.6;4.0;-88.7;0.0;31.26;39.46886;-0.34075;0.5;NaN;0.0;7.1;0.0;5 / 29;26859;2021-10-27 17:44:59:932
0.689;9.478;0.263;9.778;-0.685;0.283;0.038;0.259;-0.046;0.001;0.012;-0.003;149.0;17.4;-31.1;19.4;148.1;3.9;-88.3;0.0;31.26;39.46886;-0.34075;0.5;NaN;0.0;7.1;0.0;5 / 29;26908;2021-10-27 17:44:59:981
0.694;9.507;0.225;9.778;-0.747;0.196;-0.004;0.3;0.023;-0.001;0.003;-0.001;149.0;17.6;-31.4;19.1;147.9;4.2;-88.7;0.0;31.2;39.46886;-0.34075;0.5;NaN;0.0;7.1;0.0;5 / 29;26958;2021-10-27 17:45:00:031
0.655;9.474;0.251;9.778;-0.675;0.268;0.023;0.3;-0.017;-0.003;-0.013;0.0;149.0;17.6;-31.9;19.1;148.7;4.2;-88.8;0.0;31.2;39.46886;-0.34075;0.5;NaN;0.0;7.1;0.0;5 / 29;27008;2021-10-27 17:45:00:081
0.67;9.469;0.248;9.778;-0.713;0.225;-0.002;0.259;0.025;-0.003;-0.013;0.0;149.0;17.3;-31.9;19.5;147.4;4.0;-88.7;0.0;31.2;39.46886;-0.34075;0.5;NaN;0.0;7.1;0.0;6 / 29;27058;2021-10-27 17:45:00:131
0.679;9.505;0.234;9.778;-0.699;0.239;0.028;0.272;-0.002;-0.003;-0.013;0.0;149.0;17.4;-31.7;20.0;147.5;3.9;-88.6;0.0;31.2;39.46887;-0.34073;0.5;NaN;0.0;7.1;0.0;6 / 29;27109;2021-10-27 17:45:00:182
0.701;9.493;0.174;9.778;-0.709;0.211;-0.011;0.299;0.066;0.002;-0.008;0.005;149.0;17.8;-31.1;20.0;146.5;4.2;-88.6;0.0;31.2;39.46887;-0.34073;0.5;NaN;0.0;7.1;0.0;6 / 29;27158;2021-10-27 17:45:00:231
0.665;9.497;0.26;9.778;-0.69;0.254;0.033;0.258;-0.02;0.008;0.033;0.005;149.0;17.6;-31.0;19.7;146.6;3.9;-88.6;0.0;31.2;39.46887;-0.34073;0.5;NaN;0.0;7.1;0.0;6 / 29;27209;2021-10-27 17:45:00:282
0.691;9.454;0.198;9.783;-0.661;0.225;0.047;0.285;0.019;0.006;0.046;0.002;149.0;17.3;-31.0;19.8;146.6;3.9;-88.7;0.0;31.82;39.46887;-0.34073;0.5;NaN;0.0;7.1;0.0;6 / 29;27258;2021-10-27 17:45:00:331
0.689;9.507;0.246;9.778;-0.718;0.211;0.006;0.313;0.004;0.005;0.036;-0.003;149.0;17.2;-31.3;19.5;146.6;4.0;-88.6;0.0;31.82;39.46887;-0.34073;0.5;NaN;0.0;7.1;0.0;6 / 29;27309;2021-10-27 17:45:00:382
0.684;9.464;0.234;9.778;-0.699;0.268;0.03;0.286;0.004;0.002;0.03;-0.005;151.0;17.6;-31.4;19.4;148.0;3.9;-88.6;0.0;31.82;39.46887;-0.34073;0.5;NaN;0.0;7.1;0.0;6 / 29;27358;2021-10-27 17:45:00:431
0.71;9.49;0.275;9.778;-0.718;0.297;0.001;0.299;-0.05;-0.002;-0.003;-0.004;151.0;18.0;-31.3;19.3;148.0;4.1;-88.5;0.0;31.82;39.46887;-0.34073;0.5;NaN;0.0;7.1;0.0;6 / 29;27409;2021-10-27 17:45:00:482
0.672;9.5;0.256;9.778;-0.713;0.254;0.027;0.231;0.007;-0.008;-0.027;-0.002;151.0;18.0;-31.1;19.3;147.9;4.1;-88.6;0.0;31.82;39.46887;-0.34073;0.5;NaN;0.0;7.1;0.0;6 / 29;27458;2021-10-27 17:45:00:531
0.679;9.481;0.248;9.778;-0.69;0.254;0.027;0.299;-0.031;-0.011;-0.041;0.0;151.0;18.1;-31.3;19.7;146.7;4.1;-88.3;0.0;31.82;39.46887;-0.34073;0.5;NaN;0.0;7.1;0.0;6 / 29;27508;2021-10-27 17:45:00:581
0.694;9.478;0.27;9.778;-0.704;0.225;0.016;0.285;0.015;-0.012;-0.062;0.002;151.0;17.8;-31.7;19.7;147.3;4.1;-88.8;0.0;31.82;39.46887;-0.34073;0.5;NaN;0.0;7.1;0.0;6 / 29;27559;2021-10-27 17:45:00:632
0.663;9.5;0.193;9.783;-0.685;0.211;0.031;0.258;0.044;-0.007;-0.04;0.002;151.0;17.5;-31.9;19.7;147.5;4.2;-88.3;0.0;31.5;39.46887;-0.34073;0.5;NaN;0.0;7.1;0.0;6 / 29;27608;2021-10-27 17:45:00:681
0.636;9.505;0.22;9.778;-0.699;0.225;0.018;0.299;0.031;-0.001;-0.012;0.001;151.0;17.5;-31.6;19.4;148.8;4.1;-88.7;0.0;31.5;39.46887;-0.34073;0.5;NaN;0.0;7.1;0.0;6 / 29;27658;2021-10-27 17:45:00:731
0.658;9.464;0.236;9.778;-0.685;0.268;0.018;0.326;0.014;-0.001;-0.012;0.001;158.0;17.4;-31.4;19.2;148.0;3.9;-88.5;0.0;31.5;39.46887;-0.34073;0.5;NaN;0.0;7.1;0.0;6 / 29;27708;2021-10-27 17:45:00:781
0.677;9.497;0.256;9.778;-0.704;0.254;0.019;0.313;0.025;-0.001;-0.012;0.001;158.0;17.5;-31.3;19.5;147.9;4.3;-88.7;0.0;31.5;39.46887;-0.34073;0.5;NaN;0.0;7.1;0.0;6 / 29;27758;2021-10-27 17:45:00:831
0.698;9.483;0.241;9.778;-0.742;0.239;0.019;0.285;0.075;-0.001;-0.012;0.001;158.0;17.4;-31.4;19.5;146.4;4.3;-88.8;0.0;31.5;39.46887;-0.34073;0.5;NaN;0.0;7.1;0.0;6 / 29;27808;2021-10-27 17:45:00:881
0.636;9.497;0.189;9.783;-0.632;0.225;0.089;0.285;0.017;0.008;0.013;0.003;158.0;17.5;-31.3;19.4;148.0;3.7;-88.7;0.0;31.5;39.46887;-0.34073;0.5;NaN;0.0;7.1;0.0;6 / 29;27859;2021-10-27 17:45:00:932
0.722;9.476;0.21;9.778;-0.704;0.182;0.021;0.285;0.042;0.007;0.007;0.0;158.0;17.9;-31.0;19.4;147.9;4.1;-88.8;0.0;30.38;39.46887;-0.34073;0.5;NaN;0.0;7.1;0.0;6 / 29;27908;2021-10-27 17:45:00:981
0.701;9.485;0.191;9.778;-0.704;0.211;0.074;0.326;-0.029;0.008;0.0;-0.001;158.0;18.1;-31.1;19.3;147.8;4.1;-88.8;0.0;30.38;39.46887;-0.34073;0.5;NaN;0.0;7.1;0.0;6 / 29;27959;2021-10-27 17:45:01:032
0.675;9.505;0.198;9.783;-0.69;0.168;0.03;0.286;0.048;0.006;-0.046;-0.007;160.0;18.1;-31.3;19.4;147.8;4.2;-88.8;0.0;30.38;39.46887;-0.34073;0.5;NaN;0.0;7.1;0.0;6 / 29;28009;2021-10-27 17:45:01:082
0.653;9.495;0.217;9.783;-0.675;0.225;0.068;0.3;0.017;0.003;-0.064;-0.005;160.0;18.0;-31.6;19.5;147.5;3.9;-88.5;0.0;30.38;39.46887;-0.34073;0.5;NaN;0.0;7.1;0.0;5 / 29;28059;2021-10-27 17:45:01:132
0.667;9.471;0.251;9.778;-0.704;0.254;0.039;0.314;0.001;0.002;-0.047;-0.005;160.0;17.9;-31.4;19.9;146.5;3.9;-88.8;0.0;30.38;39.46888;-0.34072;0.6;NaN;0.0;7.0;0.0;5 / 29;28108;2021-10-27 17:45:01:181
0.71;9.502;0.215;9.778;-0.742;0.211;-0.003;0.3;-0.014;-0.004;-0.013;-0.003;160.0;17.5;-31.1;19.8;146.4;4.3;-88.8;0.0;30.38;39.46888;-0.34072;0.6;NaN;0.0;7.0;0.0;5 / 29;28158;2021-10-27 17:45:01:231
0.682;9.481;0.241;9.783;-0.661;0.239;0.05;0.327;-0.039;-0.002;0.015;-0.002;160.0;17.5;-31.0;19.8;146.4;4.1;-88.8;0.0;30.38;39.46888;-0.34072;0.6;NaN;0.0;7.0;0.0;5 / 29;28209;2021-10-27 17:45:01:282
0.713;9.5;0.172;9.778;-0.742;0.196;-0.045;0.273;0.016;0.002;0.045;0.007;160.0;17.5;-31.6;19.6;147.2;4.3;-88.8;0.0;30.32;39.46888;-0.34072;0.6;NaN;0.0;7.0;0.0;5 / 29;28259;2021-10-27 17:45:01:332
0.631;9.483;0.213;9.783;-0.69;0.225;0.054;0.313;0.017;0.003;0.05;0.006;160.0;17.5;-31.9;19.7;147.5;3.9;-88.8;0.0;30.32;39.46888;-0.34072;0.6;NaN;0.0;7.0;0.0;5 / 29;28308;2021-10-27 17:45:01:381
0.672;9.512;0.177;9.783;-0.69;0.196;0.054;0.313;0.017;0.003;0.05;0.006;166.0;17.5;-31.7;19.3;147.4;4.0;-88.8;0.0;30.32;39.46888;-0.34072;0.6;NaN;0.0;7.0;0.0;5 / 29;28358;2021-10-27 17:45:01:431
0.701;9.471;0.229;9.778;-0.733;0.196;-0.027;0.273;-0.025;0.003;0.05;0.006;166.0;17.7;-31.3;19.4;147.9;4.2;-88.8;0.0;30.32;39.46888;-0.34072;0.6;NaN;0.0;7.0;0.0;5 / 29;28409;2021-10-27 17:45:01:482
0.636;9.454;0.256;9.778;-0.69;0.239;0.067;0.286;-0.025;0.003;0.05;0.006;166.0;17.8;-31.1;19.1;148.0;3.9;-88.5;0.0;30.32;39.46888;-0.34072;0.6;NaN;0.0;7.0;0.0;5 / 29;28459;2021-10-27 17:45:01:532
0.67;9.512;0.208;9.778;-0.685;0.225;0.039;0.286;0.016;-0.003;-0.03;-0.003;166.0;18.0;-30.8;19.1;147.9;4.0;-88.6;0.0;30.32;39.46888;-0.34072;0.6;NaN;0.0;7.0;0.0;5 / 29;28508;2021-10-27 17:45:01:581
0.665;9.469;0.272;9.783;-0.675;0.254;0.052;0.327;-0.01;-0.005;-0.035;-0.003;166.0;18.0;-30.8;19.1;148.1;3.8;-88.5;0.0;30.29;39.46888;-0.34072;0.6;NaN;0.0;7.0;0.0;5 / 29;28558;2021-10-27 17:45:01:631
0.684;9.502;0.193;9.783;-0.675;0.168;0.036;0.3;0.046;-0.005;-0.052;-0.007;166.0;18.1;-31.3;19.3;147.9;3.9;-88.9;0.0;30.29;39.46888;-0.34072;0.6;NaN;0.0;7.0;0.0;5 / 29;28609;2021-10-27 17:45:01:682
0.679;9.478;0.263;9.778;-0.69;0.239;0.006;0.287;0.006;-0.004;-0.056;-0.007;166.0;18.3;-31.6;19.5;147.4;4.0;-88.6;0.0;30.29;39.46888;-0.34072;0.6;NaN;0.0;7.0;0.0;5 / 29;28658;2021-10-27 17:45:01:731
0.71;9.483;0.222;9.778;-0.733;0.225;0.044;0.26;0.033;-0.002;-0.048;-0.004;167.0;18.1;-31.3;19.3;147.9;3.8;-88.9;0.0;30.29;39.46888;-0.34072;0.6;NaN;0.0;7.0;0.0;5 / 29;28708;2021-10-27 17:45:01:781
0.718;9.478;0.189;9.778;-0.747;0.196;-0.01;0.273;0.031;0.002;-0.035;-0.001;167.0;17.6;-31.4;19.3;147.8;4.4;-88.8;0.0;30.29;39.46888;-0.34072;0.6;NaN;0.0;7.0;0.0;5 / 29;28759;2021-10-27 17:45:01:832
0.663;9.502;0.244;9.783;-0.661;0.239;0.047;0.273;0.002;0.002;-0.02;0.006;167.0;17.4;-31.3;19.1;148.0;4.1;-88.5;0.0;30.29;39.46888;-0.34072;0.6;NaN;0.0;7.0;0.0;5 / 29;28809;2021-10-27 17:45:01:882
0.706;9.502;0.215;9.778;-0.718;0.211;-0.006;0.273;0.028;0.004;0.01;0.003;167.0;17.5;-31.7;19.1;148.7;4.2;-88.8;0.0;30.29;39.46888;-0.34072;0.6;NaN;0.0;7.0;0.0;5 / 29;28858;2021-10-27 17:45:01:931
0.66;9.488;0.248;9.783;-0.646;0.254;0.036;0.3;-0.015;0.006;0.034;0.002;167.0;18.0;-31.4;19.4;148.0;3.9;-88.6;0.0;30.91;39.46888;-0.34072;0.6;NaN;0.0;7.0;0.0;5 / 29;28908;2021-10-27 17:45:01:981
0.675;9.438;0.177;9.778;-0.718;0.211;0.022;0.314;0.038;0.004;0.02;-0.003;167.0;18.2;-31.3;19.7;147.8;4.0;-88.9;0.0;30.91;39.46888;-0.34072;0.6;NaN;0.0;7.0;0.0;5 / 29;28959;2021-10-27 17:45:02:032
0.675;9.466;0.217;9.783;-0.69;0.211;0.02;0.287;0.023;0.003;0.007;-0.002;163.0;18.1;-31.0;19.7;146.6;4.0;-88.6;0.0;30.91;39.46888;-0.34072;0.6;NaN;0.0;7.0;0.0;5 / 29;29009;2021-10-27 17:45:02:082
0.677;9.5;0.208;9.783;-0.661;0.239;0.047;0.26;-0.005;0.001;-0.017;-0.002;163.0;17.8;-30.8;19.7;146.6;3.9;-88.6;0.0;30.91;39.46888;-0.34072;0.6;NaN;0.0;7.0;0.0;5 / 29;29058;2021-10-27 17:45:02:131
0.677;9.457;0.196;9.783;-0.69;0.196;0.019;0.273;0.009;0.001;0.015;-0.002;163.0;17.4;-30.8;19.4;147.8;4.2;-88.8;0.0;30.91;39.4689;-0.3407;0.6;NaN;0.0;7.0;0.0;5 / 29;29109;2021-10-27 17:45:02:182
0.708;9.474;0.208;9.778;-0.718;0.196;0.045;0.301;-0.032;0.0;0.025;-0.001;163.0;17.5;-31.0;19.5;147.8;4.1;-88.8;0.0;30.91;39.4689;-0.3407;0.6;NaN;0.0;7.0;0.0;5 / 29;29158;2021-10-27 17:45:02:231
0.636;9.514;0.186;9.783;-0.675;0.182;0.031;0.26;0.023;0.002;0.041;-0.001;163.0;17.6;-30.8;19.1;146.6;3.9;-88.7;0.0;30.78;39.4689;-0.3407;0.6;NaN;0.0;7.0;0.0;5 / 29;29208;2021-10-27 17:45:02:281
0.703;9.526;0.198;9.778;-0.704;0.225;0.003;0.287;0.023;0.004;0.033;0.0;163.0;17.5;-31.0;19.5;146.5;4.1;-88.7;0.0;30.78;39.4689;-0.3407;0.6;NaN;0.0;7.0;0.0;5 / 29;29259;2021-10-27 17:45:02:332
0.658;9.459;0.239;9.783;-0.69;0.225;0.016;0.301;-0.005;0.004;0.025;0.0;163.0;17.6;-30.8;19.1;147.9;3.9;-88.9;0.0;30.78;39.4689;-0.3407;0.6;NaN;0.0;7.0;0.0;5 / 29;29308;2021-10-27 17:45:02:381
0.667;9.49;0.172;9.778;-0.704;0.182;0.016;0.314;-0.02;0.004;0.025;0.0;162.0;17.5;-31.4;19.1;147.9;4.0;-88.8;0.0;30.78;39.4689;-0.3407;0.6;NaN;0.0;7.0;0.0;5 / 29;29358;2021-10-27 17:45:02:431
0.627;9.512;0.155;9.783;-0.675;0.168;0.032;0.314;0.02;0.001;-0.011;0.002;162.0;17.6;-31.6;19.1;148.7;4.0;-88.8;0.0;30.78;39.4689;-0.3407;0.6;NaN;0.0;7.0;0.0;5 / 29;29409;2021-10-27 17:45:02:482
0.708;9.509;0.155;9.783;-0.704;0.139;0.005;0.26;0.061;-0.001;-0.024;0.001;162.0;17.6;-32.0;19.5;147.4;3.9;-88.9;0.0;30.78;39.4689;-0.3407;0.6;NaN;0.0;7.0;0.0;5 / 29;29458;2021-10-27 17:45:02:531
0.612;9.474;0.217;9.783;-0.675;0.225;0.033;0.287;-0.009;0.002;-0.021;0.0;162.0;17.8;-31.9;19.6;147.3;4.0;-88.9;0.0;30.78;39.4689;-0.3407;0.6;NaN;0.0;7.0;0.0;5 / 29;29509;2021-10-27 17:45:02:582
0.708;9.497;0.181;9.778;-0.733;0.225;-0.023;0.301;0.029;0.004;-0.012;-0.003;162.0;17.8;-31.6;19.4;149.0;3.9;-88.2;0.0;30.65;39.4689;-0.3407;0.6;NaN;0.0;7.0;0.0;5 / 29;29559;2021-10-27 17:45:02:632
0.703;9.478;0.21;9.778;-0.699;0.225;-0.023;0.274;0.0;0.002;0.005;-0.001;162.0;17.8;-31.9;19.4;148.6;4.3;-88.8;0.0;30.65;39.4689;-0.3407;0.6;NaN;0.0;7.0;0.0;5 / 29;29608;2021-10-27 17:45:02:681
0.658;9.488;0.229;9.783;-0.661;0.239;0.004;0.328;-0.041;0.0;0.0;0.0;162.0;17.6;-31.7;19.4;148.8;3.9;-88.6;0.0;30.65;39.4689;-0.3407;0.6;NaN;0.0;7.0;0.0;5 / 29;29659;2021-10-27 17:45:02:732
0.653;9.514;0.201;9.778;-0.699;0.239;0.019;0.26;0.045;-0.006;0.005;0.005;161.0;17.5;-31.4;19.7;146.4;4.0;-89.0;0.0;30.65;39.4689;-0.3407;0.6;NaN;0.0;7.0;0.0;5 / 29;29708;2021-10-27 17:45:02:781
0.663;9.462;0.232;9.783;-0.675;0.211;0.021;0.3;-0.007;-0.006;0.012;0.003;161.0;17.5;-31.1;19.7;146.5;3.9;-88.8;0.0;30.65;39.4689;-0.3407;0.6;NaN;0.0;7.0;0.0;5 / 29;29759;2021-10-27 17:45:02:832
0.648;9.493;0.193;9.783;-0.685;0.196;0.035;0.314;0.078;-0.001;0.024;0.001;161.0;17.6;-31.0;19.7;146.5;4.1;-88.8;0.0;30.65;39.4689;-0.3407;0.6;NaN;0.0;7.0;0.0;5 / 29;29808;2021-10-27 17:45:02:881
0.641;9.49;0.213;9.783;-0.675;0.239;0.007;0.314;-0.044;0.003;0.038;0.0;161.0;17.8;-31.3;19.9;146.6;3.9;-88.6;0.0;31.5;39.4689;-0.3407;0.6;NaN;0.0;7.0;0.0;5 / 29;29859;2021-10-27 17:45:02:932
0.677;9.497;0.205;9.783;-0.69;0.225;0.021;0.26;0.022;0.01;0.038;0.001;161.0;17.5;-31.3;20.0;146.5;4.0;-88.9;0.0;31.5;39.4689;-0.3407;0.6;NaN;0.0;7.0;0.0;5 / 29;29908;2021-10-27 17:45:02:981
0.682;9.5;0.196;9.783;-0.704;0.153;0.007;0.273;-0.022;0.009;0.04;0.001;161.0;17.5;-31.6;19.7;146.6;4.1;-88.6;0.0;31.5;39.4689;-0.3407;0.6;NaN;0.0;7.0;0.0;5 / 29;29958;2021-10-27 17:45:03:031
0.66;9.495;0.21;9.783;-0.67;0.196;0.035;0.26;0.017;0.009;0.04;0.001;163.0;17.8;-31.6;19.7;147.3;3.9;-89.0;0.0;31.5;39.4689;-0.3407;0.6;NaN;0.0;7.0;0.0;5 / 29;30008;2021-10-27 17:45:03:081
0.67;9.512;0.186;9.778;-0.704;0.196;0.049;0.301;-0.04;0.009;0.04;0.001;163.0;18.2;-31.9;19.5;147.3;4.1;-88.8;0.0;31.5;39.4689;-0.3407;0.6;NaN;0.0;7.0;0.0;6 / 29;30059;2021-10-27 17:45:03:132
0.701;9.509;0.227;9.778;-0.704;0.196;-0.006;0.301;0.041;0.002;-0.003;0.0;163.0;18.1;-31.9;19.3;148.6;4.1;-89.0;0.0;31.5;39.46892;-0.34069;0.5;NaN;0.0;7.0;0.0;6 / 29;30108;2021-10-27 17:45:03:181
0.67;9.497;0.205;9.778;-0.704;0.196;-0.006;0.301;0.026;-0.001;-0.053;-0.001;163.0;18.0;-31.7;19.4;148.6;4.2;-89.0;0.0;31.5;39.46892;-0.34069;0.5;NaN;0.0;7.0;0.0;6 / 29;30158;2021-10-27 17:45:03:231
0.615;9.462;0.191;9.783;-0.646;0.124;0.09;0.314;0.079;0.001;-0.07;-0.001;163.0;18.1;-31.7;19.4;147.2;3.8;-89.3;0.0;31.74;39.46892;-0.34069;0.5;NaN;0.0;7.0;0.0;6 / 29;30208;2021-10-27 17:45:03:281
0.665;9.483;0.169;9.783;-0.675;0.153;0.035;0.301;0.006;0.007;-0.053;-0.001;163.0;17.8;-31.3;19.7;146.4;3.9;-89.1;0.0;31.74;39.46892;-0.34069;0.5;NaN;0.0;7.0;0.0;6 / 29;30258;2021-10-27 17:45:03:331
0.622;9.519;0.174;9.783;-0.646;0.196;0.008;0.274;0.026;0.01;-0.039;-0.003;163.0;17.5;-31.3;19.4;147.8;4.1;-89.0;0.0;31.74;39.46892;-0.34069;0.5;NaN;0.0;7.0;0.0;6 / 29;30309;2021-10-27 17:45:03:382
0.663;9.481;0.165;9.783;-0.675;0.139;0.033;0.301;0.035;0.011;-0.019;-0.006;165.0;17.8;-31.3;19.7;146.4;3.9;-89.1;0.0;31.74;39.46892;-0.34069;0.5;NaN;0.0;7.0;0.0;6 / 29;30359;2021-10-27 17:45:03:432
0.631;9.485;0.172;9.783;-0.646;0.182;0.004;0.315;0.031;0.009;0.014;-0.002;165.0;17.9;-31.4;19.8;146.3;4.2;-89.0;0.0;31.74;39.46892;-0.34069;0.5;NaN;0.0;7.0;0.0;6 / 29;30409;2021-10-27 17:45:03:482
0.655;9.495;0.157;9.783;-0.675;0.139;0.016;0.315;0.027;0.008;0.02;-0.002;165.0;18.1;-31.7;19.9;147.2;4.1;-89.1;0.0;31.74;39.46892;-0.34069;0.5;NaN;0.0;7.0;0.0;6 / 29;30459;2021-10-27 17:45:03:532
0.665;9.476;0.174;9.783;-0.68;0.153;0.029;0.288;0.01;0.006;0.027;-0.002;165.0;17.9;-31.4;20.0;146.4;3.9;-89.0;0.0;31.83;39.46892;-0.34069;0.5;NaN;0.0;7.0;0.0;6 / 29;30508;2021-10-27 17:45:03:581
