sep=;
ACCELEROMETER X (m/s²);ACCELEROMETER Y (m/s²);ACCELEROMETER Z (m/s²);GRAVITY X (m/s²);GRAVITY Y (m/s²);GRAVITY Z (m/s²);LINEAR ACCELERATION X (m/s²);LINEAR ACCELERATION Y (m/s²);LINEAR ACCELERATION Z (m/s²);GYROSCOPE X (rad/s);GYROSCOPE Y (rad/s);GYROSCOPE Z (rad/s);LIGHT (lux);MAGNETIC FIELD X (μT);MAGNETIC FIELD Y (μT);MAGNETIC FIELD Z (μT);ORIENTATION Z (azimuth °);ORIENTATION X (pitch °);ORIENTATION Y (roll °);PROXIMITY (m);SOUND LEVEL (dB);LOCATION Latitude : ;LOCATION Longitude : ;LOCATION Altitude ( m);LOCATION Altitude-google ( m);LOCATION Speed ( Kmh);LOCATION Accuracy ( m);LOCATION ORIENTATION (°);Satellites in range;Time since start in ms ;YYYY-MO-DD HH-MI-SS_SSS
-0.3445;0.1794;4.8704;2.9967;-2.5084;8.9958;-0.3459;-4.7527;3.7677;-0.4059;-2.2032;-0.7309;480.0;11.04;-23.59;-32.46;197.08;20.4;1.13;5.0;33.195;39.468887;-0.340908;70.4;NaN;;15.207;;0 / 18;6;2021-10-20 00:23:34:082
-0.3445;0.1794;4.8704;4.1507;-5.5397;6.9466;-0.3459;-4.7527;3.7677;-0.4059;-2.2032;-0.7309;480.0;11.04;-23.59;-32.46;197.08;20.4;1.13;5.0;33.195;39.468887;-0.340908;70.4;NaN;;15.207;;0 / 18;10;2021-10-20 00:23:34:086
-0.3445;0.1794;4.8704;4.1507;-5.5397;6.9466;-0.3459;-4.7527;3.7677;-0.4128;-1.8844;-0.4719;480.0;9.3;-23.94;-32.89;197.08;20.4;1.13;5.0;33.195;39.468887;-0.340908;70.4;NaN;;15.207;;0 / 18;16;2021-10-20 00:23:34:092
1.3673;1.6406;3.8684;4.1507;-5.5397;6.9466;-0.3459;-4.7527;3.7677;-0.4128;-1.8844;-0.4719;480.0;9.3;-23.94;-32.89;197.08;20.4;1.13;5.0;33.195;39.468887;-0.340908;70.4;NaN;;15.207;;0 / 18;21;2021-10-20 00:23:34:097
1.3673;1.6406;3.8684;7.0891;-4.4541;5.1053;-2.868;-5.3878;4.4876;-0.4128;-1.8844;-0.4719;480.0;9.3;-23.94;-32.89;197.08;20.4;1.13;5.0;33.195;39.468887;-0.340908;70.4;NaN;;15.207;;0 / 18;26;2021-10-20 00:23:34:102
1.3673;1.6406;3.8684;7.0891;-4.4541;5.1053;-2.868;-5.3878;4.4876;-0.4128;-1.8844;-0.4719;480.0;9.3;-23.94;-32.89;197.08;20.4;1.13;5.0;33.195;39.468887;-0.340908;70.4;NaN;;15.207;;0 / 18;31;2021-10-20 00:23:34:107
-4.4173;1.233;0.5188;7.0891;-4.4541;5.1053;-2.868;-5.3878;4.4876;-1.0394;-0.9878;0.5917;505.0;7.61;-24.19;-33.36;135.18;-1.51;56.7;5.0;33.195;39.468887;-0.340908;70.4;NaN;;15.207;;0 / 18;36;2021-10-20 00:23:34:112
-4.4173;1.233;0.5188;0.318;3.4861;9.1644;-0.6549;-8.0731;4.0497;-1.0394;-0.9878;0.5917;505.0;7.61;-24.19;-33.36;135.18;-1.51;56.7;5.0;33.195;39.468887;-0.340908;70.4;NaN;;15.207;;0 / 18;40;2021-10-20 00:23:34:116
-4.4173;1.233;0.5188;0.318;3.4861;9.1644;-0.6549;-8.0731;4.0497;-1.0394;-0.9878;0.5917;505.0;7.61;-24.19;-33.36;135.18;-1.51;56.7;5.0;33.195;39.468887;-0.340908;70.4;NaN;;15.207;;0 / 18;46;2021-10-20 00:23:34:122
-4.4173;1.233;0.5188;0.318;3.4861;9.1644;-0.6549;-8.0731;4.0497;-1.0394;-0.9878;0.5917;505.0;7.61;-24.19;-33.36;135.18;-1.51;56.7;5.0;33.195;39.468887;-0.340908;70.4;NaN;;15.207;;0 / 18;50;2021-10-20 00:23:34:126
-2.5483;2.5349;-0.7189;3.3612;5.7807;7.1723;-0.6549;-8.0731;4.0497;-1.0394;-0.9878;0.5917;505.0;6.24;-24.41;-33.79;135.18;-1.51;56.7;5.0;33.195;39.468887;-0.340908;70.4;NaN;;15.207;;0 / 18;56;2021-10-20 00:23:34:132
-2.5483;2.5349;-0.7189;3.3612;5.7807;7.1723;-0.6549;-8.0731;4.0497;-1.0394;-0.9878;0.5917;505.0;6.24;-24.41;-33.79;135.18;-1.51;56.7;5.0;33.195;39.468887;-0.340908;70.4;NaN;;15.207;;0 / 18;61;2021-10-20 00:23:34:137
-3.5831;2.9506;-2.0899;1.5543;7.1164;6.5694;-2.9846;-9.3324;5.6243;-2.1153;-0.4654;1.7478;505.0;6.24;-24.41;-33.79;135.18;-1.51;56.7;5.0;33.195;39.468887;-0.340908;70.4;NaN;;15.207;;0 / 18;66;2021-10-20 00:23:34:142
-3.5831;2.9506;-2.0899;1.5543;7.1164;6.5694;-2.9846;-9.3324;5.6243;-2.1153;-0.4654;1.7478;505.0;6.24;-24.41;-33.79;135.18;-1.51;56.7;5.0;33.195;39.468887;-0.340908;70.4;NaN;;15.207;;0 / 18;71;2021-10-20 00:23:34:147
-3.5831;2.9506;-2.0899;1.5543;7.1164;6.5694;-2.9846;-9.3324;5.6243;-2.8988;-1.9378;1.4703;505.0;4.44;-24.71;-33.79;123.33;22.65;99.22;5.0;33.195;39.468887;-0.340908;70.4;NaN;;15.207;;0 / 18;76;2021-10-20 00:23:34:152
-4.2073;5.5455;-1.314;-1.3489;2.6306;9.3517;-1.9173;-11.9334;-2.4807;-2.8988;-1.9378;1.4703;505.0;4.44;-24.71;-33.79;123.33;22.65;99.22;5.0;33.195;39.468887;-0.340908;70.4;NaN;;15.207;;0 / 18;81;2021-10-20 00:23:34:157
-4.2073;5.5455;-1.314;-1.3489;2.6306;9.3517;-1.9173;-11.9334;-2.4807;-2.8988;-1.9378;1.4703;505.0;4.44;-24.71;-33.79;123.33;22.65;99.22;5.0;33.195;39.468887;-0.340908;70.4;NaN;;15.207;;0 / 18;87;2021-10-20 00:23:34:163
-4.2073;5.5455;-1.314;-1.3489;2.6306;9.3517;-1.9173;-11.9334;-2.4807;-2.8988;-1.9378;1.4703;505.0;4.44;-24.71;-33.79;123.33;22.65;99.22;5.0;33.195;39.468887;-0.340908;70.4;NaN;;15.207;;0 / 18;91;2021-10-20 00:23:34:167
-4.6832;6.0725;-3.5317;-3.3433;2.8968;8.7507;-1.8077;-13.0128;0.4603;-2.8988;-1.9378;1.4703;505.0;1.74;-25.39;-33.24;123.33;22.65;99.22;5.0;33.195;39.468887;-0.340908;70.4;NaN;;15.207;;0 / 18;95;2021-10-20 00:23:34:171
-4.6832;6.0725;-3.5317;-3.3433;2.8968;8.7507;-1.8077;-13.0128;0.4603;-2.8988;-1.9378;1.4703;505.0;1.74;-25.39;-33.24;123.33;22.65;99.22;5.0;33.195;39.468887;-0.340908;70.4;NaN;;15.207;;0 / 18;101;2021-10-20 00:23:34:177
-4.6832;6.0725;-3.5317;-3.3433;2.8968;8.7507;-1.8077;-13.0128;0.4603;-3.1655;-2.9034;1.3255;505.0;1.74;-25.39;-33.24;123.33;22.65;99.22;5.0;33.195;39.468887;-0.340908;70.4;NaN;;15.207;;0 / 18;106;2021-10-20 00:23:34:182
-5.1226;6.5275;-4.8284;-4.5969;3.6549;7.8538;-1.8077;-13.0128;0.4603;-3.1655;-2.9034;1.3255;505.0;1.74;-25.39;-33.24;123.33;22.65;99.22;5.0;33.195;39.468887;-0.340908;70.4;NaN;;15.207;;0 / 18;111;2021-10-20 00:23:34:187
-5.1226;6.5275;-4.8284;-4.5969;3.6549;7.8538;-1.8077;-13.0128;0.4603;-3.6686;-3.8914;1.3853;505.0;-1.5;-25.99;-32.34;99.74;59.19;105.26;5.0;33.195;39.468887;-0.340908;70.4;NaN;;15.207;;0 / 18;116;2021-10-20 00:23:34:192
-5.1226;6.5275;-4.8284;-4.5969;3.6549;7.8538;-1.8077;-13.0128;0.4603;-3.6686;-3.8914;1.3853;505.0;-1.5;-25.99;-32.34;99.74;59.19;105.26;5.0;33.195;39.468887;-0.340908;70.4;NaN;;15.207;;0 / 18;121;2021-10-20 00:23:34:197
-12.03;3.8573;-1.5323;-1.9167;-1.9949;9.4057;2.7047;-12.7302;-1.7645;-3.6686;-3.8914;1.3853;505.0;-1.5;-25.99;-32.34;99.74;59.19;105.26;5.0;33.195;39.468887;-0.340908;70.4;NaN;;15.207;;0 / 18;125;2021-10-20 00:23:34:201
-12.03;3.8573;-1.5323;-1.9167;-1.9949;9.4057;2.7047;-12.7302;-1.7645;-3.6686;-3.8914;1.3853;505.0;-1.5;-25.99;-32.34;99.74;59.19;105.26;5.0;33.195;39.468887;-0.340908;70.4;NaN;;15.207;;0 / 18;131;2021-10-20 00:23:34:207
-12.03;3.8573;-1.5323;-1.9167;-1.9949;9.4057;2.7047;-12.7302;-1.7645;-3.4539;-4.3468;1.3584;505.0;-4.99;-26.4;-30.84;99.74;59.19;105.26;5.0;33.195;39.468887;-0.340908;70.4;NaN;;15.207;;0 / 18;137;2021-10-20 00:23:34:213
-16.4413;1.4387;-2.7329;-2.951;-3.6146;8.6267;7.6597;-9.47;0.7016;-3.4539;-4.3468;1.3584;505.0;-4.99;-26.4;-30.84;99.74;59.19;105.26;5.0;33.195;39.468887;-0.340908;70.4;NaN;;15.207;;0 / 18;141;2021-10-20 00:23:34:217
-16.4413;1.4387;-2.7329;-2.951;-3.6146;8.6267;7.6597;-9.47;0.7016;-3.4539;-4.3468;1.3584;505.0;-4.99;-26.4;-30.84;99.74;59.19;105.26;5.0;33.195;39.468887;-0.340908;70.4;NaN;;15.207;;0 / 18;146;2021-10-20 00:23:34:222
-17.3846;0.5985;-3.7881;-3.4479;-3.7219;8.3957;7.6597;-9.47;0.7016;-3.4539;-4.3468;1.3584;505.0;-4.99;-26.4;-30.84;99.74;59.19;105.26;5.0;33.195;39.468887;-0.340908;70.4;NaN;;15.207;;0 / 18;151;2021-10-20 00:23:34:227
-17.3846;0.5985;-3.7881;-3.4479;-3.7219;8.3957;7.6597;-9.47;0.7016;-3.4539;-4.3468;1.3584;505.0;-9.36;-26.64;-29.1;137.21;61.6;39.59;5.0;33.195;39.468887;-0.340908;70.4;NaN;;15.207;;0 / 18;156;2021-10-20 00:23:34:232
-17.3846;0.5985;-3.7881;-3.4479;-3.7219;8.3957;7.6597;-9.47;0.7016;-3.4539;-4.3468;1.3584;505.0;-9.36;-26.64;-29.1;137.21;61.6;39.59;5.0;33.195;39.468887;-0.340908;70.4;NaN;;15.207;;0 / 18;160;2021-10-20 00:23:34:236
-17.8971;-5.8991;1.5508;-0.3682;0.6333;9.7769;12.2244;-1.7116;1.5776;-2.497;-4.3898;1.023;505.0;-9.36;-26.64;-29.1;137.21;61.6;39.59;5.0;33.195;39.468887;-0.340908;70.4;NaN;;15.207;;0 / 18;166;2021-10-20 00:23:34:242
-17.8971;-5.8991;1.5508;-0.3682;0.6333;9.7769;12.2244;-1.7116;1.5776;-2.497;-4.3898;1.023;505.0;-9.36;-26.64;-29.1;137.21;61.6;39.59;5.0;33.195;39.468887;-0.340908;70.4;NaN;;15.207;;0 / 18;170;2021-10-20 00:23:34:246
-17.8971;-5.8991;1.5508;-0.3682;0.6333;9.7769;12.2244;-1.7116;1.5776;-1.6793;-4.3506;0.69;505.0;-13.69;-26.34;-26.89;137.21;61.6;39.59;5.0;33.195;39.468887;-0.340908;70.4;NaN;;15.207;;0 / 18;176;2021-10-20 00:23:34:252
-17.8;-4.051;1.0521;-0.2883;1.4691;9.6923;12.6193;-2.4643;2.6276;-1.6793;-4.3506;0.69;505.0;-13.69;-26.34;-26.89;137.21;61.6;39.59;5.0;33.195;39.468887;-0.340908;70.4;NaN;;15.207;;0 / 18;180;2021-10-20 00:23:34:256
-17.8;-4.051;1.0521;-0.2883;1.4691;9.6923;12.6193;-2.4643;2.6276;-1.6793;-4.3506;0.69;505.0;-13.69;-26.34;-26.89;137.21;61.6;39.59;5.0;33.195;39.468887;-0.340908;70.4;NaN;;15.207;;0 / 18;186;2021-10-20 00:23:34:262
-17.8;-4.051;1.0521;-0.2883;1.4691;9.6923;12.6193;-2.4643;2.6276;-1.6793;-4.3506;0.69;505.0;-13.69;-26.34;-26.89;137.21;61.6;39.59;5.0;33.195;39.468887;-0.340908;70.4;NaN;;15.207;;0 / 18;191;2021-10-20 00:23:34:267
-18.0345;-2.5973;0.8767;0.0014;0.8317;9.7725;12.7427;-0.6731;1.8386;-1.0387;-4.2387;0.4991;505.0;-18.0;-25.8;-24.06;108.26;68.61;52.29;5.0;33.195;39.468887;-0.340908;70.4;NaN;;15.207;;0 / 18;196;2021-10-20 00:23:34:272
-18.0345;-2.5973;0.8767;0.0014;0.8317;9.7725;12.7427;-0.6731;1.8386;-1.0387;-4.2387;0.4991;505.0;-18.0;-25.8;-24.06;108.26;68.61;52.29;5.0;33.195;39.468887;-0.340908;70.4;NaN;;15.207;;0 / 18;200;2021-10-20 00:23:34:276
-18.0345;-2.5973;0.8767;0.0014;0.8317;9.7725;12.7427;-0.6731;1.8386;-1.0387;-4.2387;0.4991;505.0;-18.0;-25.8;-24.06;108.26;68.61;52.29;5.0;33.195;39.468887;-0.340908;70.4;NaN;;15.207;;0 / 18;206;2021-10-20 00:23:34:282
-16.579;-8.2338;0.9192;-0.1099;0.7413;9.7782;12.7427;-0.6731;1.8386;-1.0387;-4.2387;0.4991;505.0;-18.0;-25.8;-24.06;108.26;68.61;52.29;5.0;33.195;39.468887;-0.340908;70.4;NaN;;15.207;;0 / 18;211;2021-10-20 00:23:34:287
-16.579;-8.2338;0.9192;-0.1099;0.7413;9.7782;12.7427;-0.6731;1.8386;-1.0387;-4.2387;0.4991;505.0;-22.39;-24.84;-21.3;108.26;68.61;52.29;5.0;33.195;39.468887;-0.340908;70.4;NaN;;15.207;;0 / 18;216;2021-10-20 00:23:34:292
-16.579;-8.2338;0.9192;-0.1099;0.7413;9.7782;12.7427;-0.6731;1.8386;-0.4737;-3.949;0.4093;505.0;-22.39;-24.84;-21.3;108.26;68.61;52.29;5.0;33.195;39.468887;-0.340908;70.4;NaN;;15.207;;0 / 18;220;2021-10-20 00:23:34:296
-17.5757;-6.1801;0.8848;-0.2083;2.1485;9.5689;12.4329;-0.5115;1.858;-0.4737;-3.949;0.4093;505.0;-22.39;-24.84;-21.3;108.26;68.61;52.29;5.0;33.195;39.468887;-0.340908;70.4;NaN;;15.207;;0 / 18;226;2021-10-20 00:23:34:302
-17.5757;-6.1801;0.8848;-0.2083;2.1485;9.5689;12.4329;-0.5115;1.858;-0.4737;-3.949;0.4093;505.0;-22.39;-24.84;-21.3;108.26;68.61;52.29;5.0;33.195;39.468887;-0.340908;70.4;NaN;;15.207;;0 / 18;230;2021-10-20 00:23:34:306
-17.5757;-6.1801;0.8848;-0.2083;2.1485;9.5689;12.4329;-0.5115;1.858;-0.0749;-3.7331;0.3336;505.0;-26.59;-23.4;-18.6;48.8;70.16;88.68;5.0;33.195;39.468887;-0.340908;70.4;NaN;;15.207;;0 / 18;236;2021-10-20 00:23:34:312
-13.3749;-13.9347;-0.9875;0.0354;-1.2988;9.719;13.7735;2.9321;0.7762;-0.0749;-3.7331;0.3336;505.0;-26.59;-23.4;-18.6;48.8;70.16;88.68;5.0;33.195;39.468887;-0.340908;70.4;NaN;;15.207;;0 / 18;241;2021-10-20 00:23:34:317
-13.3749;-13.9347;-0.9875;0.0354;-1.2988;9.719;13.7735;2.9321;0.7762;-0.0749;-3.7331;0.3336;505.0;-26.59;-23.4;-18.6;48.8;70.16;88.68;5.0;33.195;39.468887;-0.340908;70.4;NaN;;15.207;;0 / 18;246;2021-10-20 00:23:34:322
-13.017;-15.2518;-2.8447;-0.3747;-1.7721;9.6378;13.7735;2.9321;0.7762;-0.0749;-3.7331;0.3336;505.0;-26.59;-23.4;-18.6;48.8;70.16;88.68;5.0;33.195;39.468887;-0.340908;70.4;NaN;;15.207;;0 / 18;251;2021-10-20 00:23:34:327
-13.017;-15.2518;-2.8447;-0.3747;-1.7721;9.6378;13.7735;2.9321;0.7762;-0.0749;-3.7331;0.3336;505.0;-30.06;-21.19;-16.26;48.8;70.16;88.68;5.0;33.195;39.468887;-0.340908;70.4;NaN;;15.207;;0 / 18;256;2021-10-20 00:23:34:332
-13.017;-15.2518;-2.8447;-0.3747;-1.7721;9.6378;13.7735;2.9321;0.7762;-0.0749;-3.7331;0.3336;505.0;-30.06;-21.19;-16.26;48.8;70.16;88.68;5.0;33.195;39.468887;-0.340908;70.4;NaN;;15.207;;0 / 18;261;2021-10-20 00:23:34:337
-13.1435;-15.2733;-3.6805;-0.609;-2.052;9.5687;11.9002;5.4256;3.5837;0.3417;-3.3931;0.247;505.0;-30.06;-21.19;-16.26;48.8;70.16;88.68;5.0;33.195;39.468887;-0.340908;70.4;NaN;;15.207;;0 / 18;266;2021-10-20 00:23:34:342
-13.1435;-15.2733;-3.6805;-0.609;-2.052;9.5687;11.9002;5.4256;3.5837;0.3417;-3.3931;0.247;505.0;-30.06;-21.19;-16.26;48.8;70.16;88.68;5.0;33.195;39.468887;-0.340908;70.4;NaN;;15.207;;0 / 18;271;2021-10-20 00:23:34:347
-13.1435;-15.2733;-3.6805;-0.609;-2.052;9.5687;11.9002;5.4256;3.5837;0.7015;-3.0756;0.2042;505.0;-32.89;-18.6;-14.1;66.78;78.7;52.19;5.0;33.195;39.468887;-0.340908;70.4;NaN;;15.207;;0 / 18;275;2021-10-20 00:23:34:351
-7.4027;-18.2566;-0.0108;-0.0315;-0.203;9.803;8.9007;9.2779;2.3531;0.7015;-3.0756;0.2042;505.0;-32.89;-18.6;-14.1;66.78;78.7;52.19;5.0;33.195;39.468887;-0.340908;70.4;NaN;;15.207;;0 / 18;281;2021-10-20 00:23:34:357
-7.4027;-18.2566;-0.0108;-0.0315;-0.203;9.803;8.9007;9.2779;2.3531;0.7015;-3.0756;0.2042;505.0;-32.89;-18.6;-14.1;66.78;78.7;52.19;5.0;33.195;39.468887;-0.340908;70.4;NaN;;15.207;;0 / 18;286;2021-10-20 00:23:34:362
-7.4027;-18.2566;-0.0108;-0.0315;-0.203;9.803;8.9007;9.2779;2.3531;0.7015;-3.0756;0.2042;505.0;-32.89;-18.6;-14.1;66.78;78.7;52.19;5.0;33.195;39.468887;-0.340908;70.4;NaN;;15.207;;0 / 18;291;2021-10-20 00:23:34:367
-7.2724;-17.7279;-0.5112;-0.2508;-0.3864;9.7971;8.1082;8.2868;2.7479;0.7015;-3.0756;0.2042;505.0;-35.4;-16.09;-12.49;66.78;78.7;52.19;5.0;33.195;39.468887;-0.340908;70.4;NaN;;15.207;;0 / 18;295;2021-10-20 00:23:34:371
-7.2724;-17.7279;-0.5112;-0.2508;-0.3864;9.7971;8.1082;8.2868;2.7479;0.9235;-2.8934;0.129;505.0;-35.4;-16.09;-12.49;66.78;78.7;52.19;5.0;33.195;39.468887;-0.340908;70.4;NaN;;15.207;;0 / 18;301;2021-10-20 00:23:34:377
-7.2724;-17.7279;-0.5112;-0.2508;-0.3864;9.7971;8.1082;8.2868;2.7479;0.9235;-2.8934;0.129;505.0;-35.4;-16.09;-12.49;66.78;78.7;52.19;5.0;33.195;39.468887;-0.340908;70.4;NaN;;15.207;;0 / 18;305;2021-10-20 00:23:34:381
-7.3485;-17.1482;-0.9506;-0.534;-0.4892;9.7809;8.1082;8.2868;2.7479;0.9235;-2.8934;0.129;505.0;-35.4;-16.09;-12.49;66.78;78.7;52.19;5.0;33.195;39.468887;-0.340908;70.4;NaN;;15.207;;0 / 18;311;2021-10-20 00:23:34:387
-7.3485;-17.1482;-0.9506;-0.534;-0.4892;9.7809;8.1082;8.2868;2.7479;0.9235;-2.8934;0.129;505.0;-37.5;-9.6;-11.7;68.59;82.57;41.33;5.0;33.195;39.468887;-0.340908;70.4;NaN;;15.207;;0 / 18;316;2021-10-20 00:23:34:392
-7.3485;-17.1482;-0.9506;-0.534;-0.4892;9.7809;8.1082;8.2868;2.7479;0.9235;-2.8934;0.129;505.0;-37.5;-9.6;-11.7;68.59;82.57;41.33;5.0;49.795;39.468887;-0.340908;70.4;NaN;;15.207;;0 / 18;321;2021-10-20 00:23:34:397
-4.5515;-17.6137;-0.2652;-0.1529;-0.1798;9.8047;6.6491;8.5821;2.4933;0.9235;-2.8934;0.129;505.0;-37.5;-9.6;-11.7;68.59;82.57;41.33;5.0;49.795;39.468887;-0.340908;70.4;NaN;;15.207;;0 / 18;326;2021-10-20 00:23:34:402
-4.5515;-17.6137;-0.2652;-0.1529;-0.1798;9.8047;6.6491;8.5821;2.4933;0.9235;-2.8934;0.129;505.0;-37.5;-9.6;-11.7;68.59;82.57;41.33;5.0;49.795;39.468887;-0.340908;70.4;NaN;;15.207;;0 / 18;330;2021-10-20 00:23:34:406
-4.4666;-16.0832;0.5037;-0.1529;-0.1798;9.8047;6.6491;8.5821;2.4933;0.9235;-2.8934;0.129;505.0;-39.0;-7.91;-11.04;68.59;82.57;41.33;5.0;49.795;39.468887;-0.340908;70.4;NaN;;15.207;;0 / 18;336;2021-10-20 00:23:34:412
-4.4666;-16.0832;0.5037;0.0312;0.7879;9.7766;5.9355;6.2097;1.5516;0.9235;-2.8934;0.129;505.0;-39.0;-7.91;-11.04;68.59;82.57;41.33;5.0;49.795;39.468887;-0.340908;70.4;NaN;;15.207;;0 / 18;341;2021-10-20 00:23:34:417
-4.4666;-16.0832;0.5037;0.0312;0.7879;9.7766;5.9355;6.2097;1.5516;0.9235;-2.8934;0.129;505.0;-39.0;-7.91;-11.04;68.59;82.57;41.33;5.0;49.795;39.468887;-0.340908;70.4;NaN;;15.207;;0 / 18;346;2021-10-20 00:23:34:422
-4.0007;-13.5068;1.7862;0.0312;0.7879;9.7766;5.9355;6.2097;1.5516;0.9595;-2.6333;-0.0752;505.0;-39.0;-7.91;-11.04;68.59;82.57;41.33;5.0;49.795;39.468887;-0.340908;70.4;NaN;;15.207;;0 / 18;351;2021-10-20 00:23:34:427
-4.0007;-13.5068;1.7862;0.0862;0.8427;9.7697;5.4052;6.5361;2.0643;0.9595;-2.6333;-0.0752;505.0;-40.14;-5.59;-10.39;39.52;79.8;65.91;5.0;49.795;39.468887;-0.340908;70.4;NaN;;15.207;;0 / 18;356;2021-10-20 00:23:34:432
-4.0007;-13.5068;1.7862;0.0862;0.8427;9.7697;5.4052;6.5361;2.0643;0.9417;-2.4406;-0.0995;505.0;-40.14;-5.59;-10.39;39.52;79.8;65.91;5.0;49.795;39.468887;-0.340908;70.4;NaN;;15.207;;0 / 18;361;2021-10-20 00:23:34:437
-2.8914;-12.004;1.9967;0.0862;0.8427;9.7697;5.4052;6.5361;2.0643;0.9417;-2.4406;-0.0995;505.0;-40.14;-5.59;-10.39;39.52;79.8;65.91;5.0;49.795;39.468887;-0.340908;70.4;NaN;;15.207;;0 / 18;365;2021-10-20 00:23:34:441
-2.8914;-12.004;1.9967;0.232;1.9357;9.612;4.8965;3.4972;0.2876;0.9417;-2.4406;-0.0995;290.0;-40.14;-5.59;-10.39;39.52;79.8;65.91;5.0;49.795;39.468887;-0.340908;70.4;NaN;;15.207;;0 / 18;371;2021-10-20 00:23:34:447
-2.8914;-12.004;1.9967;0.232;1.9357;9.612;4.8965;3.4972;0.2876;0.9417;-2.4406;-0.0995;290.0;-40.8;-3.54;-9.9;39.52;79.8;65.91;5.0;49.795;39.468887;-0.340908;70.4;NaN;;15.207;;0 / 18;375;2021-10-20 00:23:34:451
-2.8228;-10.5696;2.6872;0.232;1.9357;9.612;4.8965;3.4972;0.2876;0.8588;-2.2638;-0.0855;290.0;-40.8;-3.54;-9.9;39.52;79.8;65.91;5.0;49.795;39.468887;-0.340908;70.4;NaN;;15.207;;0 / 18;381;2021-10-20 00:23:34:457
-2.8228;-10.5696;2.6872;0.2514;2.5483;9.4657;4.3871;1.207;-1.314;0.8588;-2.2638;-0.0855;290.0;-40.8;-3.54;-9.9;39.52;79.8;65.91;5.0;49.795;39.468887;-0.340908;70.4;NaN;;15.207;;0 / 18;386;2021-10-20 00:23:34:462
-2.8228;-10.5696;2.6872;0.2514;2.5483;9.4657;4.3871;1.207;-1.314;0.8588;-2.2638;-0.0855;290.0;-40.8;-3.54;-9.9;39.52;79.8;65.91;5.0;49.795;39.468887;-0.340908;70.4;NaN;;15.207;;0 / 18;391;2021-10-20 00:23:34:467
-2.7869;-9.4735;3.011;0.2514;2.5483;9.4657;4.3871;1.207;-1.314;0.8588;-2.2638;-0.0855;290.0;-41.04;-2.81;-9.96;19.19;65.74;86.66;5.0;49.795;39.468887;-0.340908;70.4;NaN;;15.207;;0 / 18;396;2021-10-20 00:23:34:472
-2.7869;-9.4735;3.011;-0.2072;0.5059;9.791;4.1324;0.1752;-1.6909;0.8609;-2.0152;-0.0555;290.0;-41.04;-2.81;-9.96;19.19;65.74;86.66;5.0;49.795;39.468887;-0.340908;70.4;NaN;;15.207;;0 / 18;400;2021-10-20 00:23:34:476
-2.7869;-9.4735;3.011;-0.2072;0.5059;9.791;4.1324;0.1752;-1.6909;0.8609;-2.0152;-0.0555;290.0;-41.04;-2.81;-9.96;19.19;65.74;86.66;5.0;49.795;39.468887;-0.340908;70.4;NaN;;15.207;;0 / 18;406;2021-10-20 00:23:34:482
-2.9672;-9.4245;0.4191;-0.2072;0.5059;9.791;4.1324;0.1752;-1.6909;0.8609;-2.0152;-0.0555;290.0;-41.04;-2.81;-9.96;19.19;65.74;86.66;5.0;49.795;39.468887;-0.340908;70.4;NaN;;15.207;;0 / 18;410;2021-10-20 00:23:34:486
-2.9672;-9.4245;0.4191;-0.2014;0.3372;9.7988;4.1324;0.1752;-1.6909;0.8609;-2.0152;-0.0555;290.0;-41.34;-1.61;-10.01;19.19;65.74;86.66;5.0;49.795;39.468887;-0.340908;70.4;NaN;;15.207;;0 / 18;416;2021-10-20 00:23:34:492
-2.9045;-9.5799;0.1077;-0.2014;0.3372;9.7988;4.1324;0.1752;-1.6909;0.7138;-1.876;0.0419;290.0;-41.34;-1.61;-10.01;19.19;65.74;86.66;5.0;49.795;39.468887;-0.340908;70.4;NaN;;15.207;;0 / 18;421;2021-10-20 00:23:34:497
-2.9045;-9.5799;0.1077;-0.2014;0.3372;9.7988;4.1324;0.1752;-1.6909;0.7138;-1.876;0.0419;290.0;-41.34;-1.61;-10.01;19.19;65.74;86.66;5.0;49.795;39.468887;-0.340908;70.4;NaN;;15.207;;0 / 18;426;2021-10-20 00:23:34:502
-2.9045;-9.5799;0.1077;-0.192;-0.2501;9.8023;3.805;-0.1417;-1.6857;0.7138;-1.876;0.0419;290.0;-41.34;-1.61;-10.01;19.19;65.74;86.66;5.0;49.795;39.468887;-0.340908;70.4;NaN;;15.207;;0 / 18;431;2021-10-20 00:23:34:507
-2.6915;-9.6906;-0.3597;-0.192;-0.2501;9.8023;3.805;-0.1417;-1.6857;0.7138;-1.876;0.0419;290.0;-41.51;-0.9;-10.14;16.57;67.48;88.17;5.0;49.795;39.468887;-0.340908;70.4;NaN;;15.207;;0 / 18;436;2021-10-20 00:23:34:512
-2.6915;-9.6906;-0.3597;-0.192;-0.2501;9.8023;3.805;-0.1417;-1.6857;0.7138;-1.876;0.0419;290.0;-41.51;-0.9;-10.14;16.57;67.48;88.17;5.0;49.795;39.468887;-0.340908;70.4;NaN;;15.207;;0 / 18;440;2021-10-20 00:23:34:516
-2.6915;-9.6906;-0.3597;-0.1415;-0.1225;9.8042;3.4213;0.087;-1.1122;0.7138;-1.876;0.0419;290.0;-41.51;-0.9;-10.14;16.57;67.48;88.17;5.0;49.795;39.468887;-0.340908;70.4;NaN;;15.207;;0 / 18;446;2021-10-20 00:23:34:522
-2.6009;-9.8215;-0.0912;-0.1415;-0.1225;9.8042;3.4213;0.087;-1.1122;0.5257;-1.7579;0.1517;290.0;-41.51;-0.9;-10.14;16.57;67.48;88.17;5.0;49.795;39.468887;-0.340908;70.4;NaN;;15.207;;0 / 18;451;2021-10-20 00:23:34:527
-2.6009;-9.8215;-0.0912;-0.1415;-0.1225;9.8042;3.4213;0.087;-1.1122;0.5257;-1.7579;0.1517;290.0;-41.34;0.0;-10.44;16.57;67.48;88.17;5.0;49.795;39.468887;-0.340908;70.4;NaN;;15.207;;0 / 18;456;2021-10-20 00:23:34:532
-2.54;-9.6779;0.0747;-0.0913;0.0666;9.8075;3.1523;0.0051;-1.2429;0.3235;-1.6526;0.3046;290.0;-41.34;0.0;-10.44;16.57;67.48;88.17;5.0;49.795;39.468887;-0.340908;70.4;NaN;;15.207;;0 / 18;461;2021-10-20 00:23:34:537
-2.54;-9.6779;0.0747;-0.0913;0.0666;9.8075;3.1523;0.0051;-1.2429;0.3235;-1.6526;0.3046;290.0;-41.34;0.0;-10.44;16.57;67.48;88.17;5.0;49.795;39.468887;-0.340908;70.4;NaN;;15.207;;0 / 18;466;2021-10-20 00:23:34:542
-2.54;-9.6779;0.0747;-0.0913;0.0666;9.8075;3.1523;0.0051;-1.2429;0.3235;-1.6526;0.3046;290.0;-41.34;0.0;-10.44;16.57;67.48;88.17;5.0;49.795;39.468887;-0.340908;70.4;NaN;;15.207;;0 / 18;471;2021-10-20 00:23:34:547
-2.54;-9.6779;0.0747;0.184;0.4122;9.796;3.1523;0.0051;-1.2429;0.3235;-1.6526;0.3046;290.0;-41.34;0.49;-11.1;19.37;64.86;87.36;5.0;49.795;39.468887;-0.340908;70.4;NaN;;15.207;;0 / 18;476;2021-10-20 00:23:34:552
-2.6625;-9.4779;0.0064;0.184;0.4122;9.796;3.1523;0.0051;-1.2429;0.3235;-1.6526;0.3046;290.0;-41.34;0.49;-11.1;19.37;64.86;87.36;5.0;49.795;39.468887;-0.340908;70.4;NaN;;15.207;;0 / 18;481;2021-10-20 00:23:34:557
-2.6625;-9.4779;0.0064;0.0923;0.1218;9.8059;2.6673;-0.1674;-1.6041;0.227;-1.5577;0.5558;290.0;-41.34;0.49;-11.1;19.37;64.86;87.36;5.0;49.795;39.468887;-0.340908;70.4;NaN;;15.207;;0 / 18;485;2021-10-20 00:23:34:561
-2.5774;-9.3844;0.209;0.0923;0.1218;9.8059;2.6673;-0.1674;-1.6041;0.227;-1.5577;0.5558;290.0;-41.34;0.49;-11.1;19.37;64.86;87.36;5.0;49.795;39.468887;-0.340908;70.4;NaN;;15.207;;0 / 18;491;2021-10-20 00:23:34:567
-2.5774;-9.3844;0.209;0.0923;0.1218;9.8059;2.6673;-0.1674;-1.6041;0.227;-1.5577;0.5558;290.0;-41.34;0.11;-11.7;19.37;64.86;87.36;5.0;49.795;39.468887;-0.340908;70.4;NaN;;15.207;;0 / 18;496;2021-10-20 00:23:34:572
-2.5774;-9.3844;0.209;0.2142;0.2256;9.802;2.2252;-0.3252;-1.7785;0.1807;-1.4644;0.7719;290.0;-41.34;0.11;-11.7;19.37;64.86;87.36;5.0;49.795;39.468887;-0.340908;70.4;NaN;;15.207;;0 / 18;501;2021-10-20 00:23:34:577
-2.6888;-9.3499;0.2582;0.2531;0.1942;9.8029;1.8258;-0.2492;-1.91;0.1779;-1.3446;0.8832;290.0;-41.21;0.36;-12.19;24.96;61.73;84.03;5.0;49.795;39.468887;-0.340908;70.4;NaN;;15.207;;0 / 18;526;2021-10-20 00:23:34:602
-2.6888;-9.3499;0.2582;0.2531;0.1942;9.8029;1.8258;-0.2492;-1.91;0.1779;-1.3446;0.8832;290.0;-41.21;0.36;-12.19;24.96;61.73;84.03;5.0;49.795;39.468887;-0.340908;70.4;NaN;;15.207;;0 / 18;527;2021-10-20 00:23:34:603
-2.6888;-9.3499;0.2582;0.2531;0.1942;9.8029;1.8258;-0.2492;-1.91;0.1779;-1.3446;0.8832;290.0;-41.21;0.36;-12.19;24.96;61.73;84.03;5.0;49.795;39.468887;-0.340908;70.4;NaN;;15.207;;0 / 18;527;2021-10-20 00:23:34:603
-2.6888;-9.3499;0.2582;0.2531;0.1942;9.8029;1.8258;-0.2492;-1.91;0.1779;-1.3446;0.8832;290.0;-41.21;0.36;-12.19;24.96;61.73;84.03;5.0;49.795;39.468887;-0.340908;70.4;NaN;;15.207;;0 / 18;527;2021-10-20 00:23:34:603
-2.6888;-9.3499;0.2582;0.2531;0.1942;9.8029;1.8258;-0.2492;-1.91;0.1779;-1.3446;0.8832;290.0;-41.21;0.36;-12.19;24.96;61.73;84.03;5.0;49.795;39.468887;-0.340908;70.4;NaN;;15.207;;0 / 18;527;2021-10-20 00:23:34:603
-2.6888;-9.3499;0.2582;0.2531;0.1942;9.8029;1.8258;-0.2492;-1.91;0.1779;-1.3446;0.8832;290.0;-41.21;0.36;-12.19;24.96;61.73;84.03;5.0;49.795;39.468887;-0.340908;70.4;NaN;;15.207;;0 / 18;531;2021-10-20 00:23:34:607
-2.5828;-9.4715;0.2853;0.4488;0.1565;9.7963;1.4137;-0.1036;-1.9932;0.1779;-1.3446;0.8832;290.0;-41.21;0.54;-12.84;24.96;61.73;84.03;5.0;49.795;39.468887;-0.340908;70.4;NaN;;15.207;;0 / 18;536;2021-10-20 00:23:34:612
-2.5828;-9.4715;0.2853;0.4488;0.1565;9.7963;1.4137;-0.1036;-1.9932;0.1779;-1.3446;0.8832;290.0;-41.21;0.54;-12.84;24.96;61.73;84.03;5.0;49.795;39.468887;-0.340908;70.4;NaN;;15.207;;0 / 18;541;2021-10-20 00:23:34:617
-2.5476;-9.5946;0.3775;0.4488;0.1565;9.7963;1.4137;-0.1036;-1.9932;0.1822;-1.2002;0.869;290.0;-41.21;0.54;-12.84;24.96;61.73;84.03;5.0;49.795;39.468887;-0.340908;70.4;NaN;;15.207;;0 / 18;546;2021-10-20 00:23:34:622
-2.5476;-9.5946;0.3775;0.4488;0.1565;9.7963;1.4137;-0.1036;-1.9932;0.1822;-1.2002;0.869;290.0;-41.21;0.54;-12.84;24.96;61.73;84.03;5.0;49.795;39.468887;-0.340908;70.4;NaN;;15.207;;0 / 18;551;2021-10-20 00:23:34:627
-2.5476;-9.5946;0.3775;0.4361;0.2772;9.7925;1.4137;-0.1036;-1.9932;0.1822;-1.2002;0.869;290.0;-41.4;0.71;-13.5;31.38;59.14;80.85;5.0;49.795;39.468887;-0.340908;70.4;NaN;;15.207;;0 / 18;555;2021-10-20 00:23:34:631
-3.2859;-9.5154;0.0907;0.4361;0.2772;9.7925;1.4137;-0.1036;-1.9932;0.1372;-1.0699;0.8029;290.0;-41.4;0.71;-13.5;31.38;59.14;80.85;5.0;49.795;39.468887;-0.340908;70.4;NaN;;15.207;;0 / 18;561;2021-10-20 00:23:34:637
-3.2859;-9.5154;0.0907;-0.0649;-0.0048;9.8057;1.3501;0.0561;-1.9629;0.1372;-1.0699;0.8029;290.0;-41.4;0.71;-13.5;31.38;59.14;80.85;5.0;49.795;39.468887;-0.340908;70.4;NaN;;15.207;;0 / 18;566;2021-10-20 00:23:34:642
-3.2859;-9.5154;0.0907;-0.0649;-0.0048;9.8057;1.3501;0.0561;-1.9629;0.1372;-1.0699;0.8029;290.0;-41.4;0.71;-13.5;31.38;59.14;80.85;5.0;49.795;39.468887;-0.340908;70.4;NaN;;15.207;;0 / 18;571;2021-10-20 00:23:34:647
-3.3456;-9.4917;-0.0335;-0.0649;-0.0048;9.8057;1.3501;0.0561;-1.9629;0.1372;-1.0699;0.8029;290.0;-41.1;0.84;-13.74;31.38;59.14;80.85;5.0;49.795;39.468887;-0.340908;70.4;NaN;;15.207;;0 / 18;575;2021-10-20 00:23:34:651
-3.3456;-9.4917;-0.0335;-0.0649;-0.0048;9.8057;1.3501;0.0561;-1.9629;0.1372;-1.0699;0.8029;290.0;-41.1;0.84;-13.74;31.38;59.14;80.85;5.0;49.795;39.468887;-0.340908;70.4;NaN;;15.207;;0 / 18;582;2021-10-20 00:23:34:658
-3.3456;-9.4917;-0.0335;-0.1829;-0.1317;9.8047;1.2717;0.0183;-1.8044;0.0901;-0.9413;0.7448;290.0;-41.1;0.84;-13.74;31.38;59.14;80.85;5.0;49.795;39.468887;-0.340908;70.4;NaN;;15.207;;0 / 18;585;2021-10-20 00:23:34:661
-3.3596;-9.5778;-0.2099;-0.1829;-0.1317;9.8047;1.2717;0.0183;-1.8044;0.0901;-0.9413;0.7448;290.0;-41.1;0.84;-13.74;31.38;59.14;80.85;5.0;49.795;39.468887;-0.340908;70.4;NaN;;15.207;;0 / 18;591;2021-10-20 00:23:34:667
-3.3596;-9.5778;-0.2099;-0.1691;-0.129;9.8058;1.16;0.1194;-1.4577;0.0491;-0.8121;0.7145;290.0;-40.91;1.14;-14.1;29.98;60.35;81.89;5.0;49.795;39.468887;-0.340908;70.4;NaN;;15.207;;0 / 18;596;2021-10-20 00:23:34:672
-3.3596;-9.5778;-0.2099;-0.1691;-0.129;9.8058;1.16;0.1194;-1.4577;0.0491;-0.8121;0.7145;290.0;-40.91;1.14;-14.1;29.98;60.35;81.89;5.0;49.795;39.468887;-0.340908;70.4;NaN;;15.207;;0 / 18;601;2021-10-20 00:23:34:677
-3.452;-9.5874;-0.242;-0.1691;-0.129;9.8058;1.16;0.1194;-1.4577;0.0491;-0.8121;0.7145;290.0;-40.91;1.14;-14.1;29.98;60.35;81.89;5.0;49.795;39.468887;-0.340908;70.4;NaN;;15.207;;0 / 18;606;2021-10-20 00:23:34:682
-3.452;-9.5874;-0.242;-0.1789;-0.3384;9.7989;1.16;0.1194;-1.4577;0.0491;-0.8121;0.7145;290.0;-40.91;1.14;-14.1;29.98;60.35;81.89;5.0;49.795;39.468887;-0.340908;70.4;NaN;;15.207;;0 / 18;611;2021-10-20 00:23:34:687
-3.452;-9.5874;-0.242;-0.1789;-0.3384;9.7989;1.16;0.1194;-1.4577;0.0491;-0.8121;0.7145;290.0;-40.8;1.01;-14.59;29.98;60.35;81.89;5.0;49.795;39.468887;-0.340908;70.4;NaN;;15.207;;0 / 18;616;2021-10-20 00:23:34:692
-3.3445;-9.9718;-0.3432;-0.1789;-0.3384;9.7989;1.16;0.1194;-1.4577;0.0149;-0.6766;0.6914;290.0;-40.8;1.01;-14.59;29.98;60.35;81.89;5.0;49.795;39.468887;-0.340908;70.4;NaN;;15.207;;0 / 18;620;2021-10-20 00:23:34:696
-3.3445;-9.9718;-0.3432;0.0055;-0.3087;9.7999;1.0939;0.4923;-1.039;0.0149;-0.6766;0.6914;290.0;-40.8;1.01;-14.59;29.98;60.35;81.89;5.0;49.795;39.468887;-0.340908;70.4;NaN;;15.207;;0 / 18;626;2021-10-20 00:23:34:702
-3.2095;-10.1498;-0.3317;0.0055;-0.3087;9.7999;1.0939;0.4923;-1.039;0.0149;-0.6766;0.6914;290.0;-40.8;1.01;-14.59;29.98;60.35;81.89;5.0;49.795;39.468887;-0.340908;70.4;NaN;;15.207;;0 / 18;630;2021-10-20 00:23:34:706
-3.2095;-10.1498;-0.3317;0.0055;-0.3087;9.7999;1.0939;0.4923;-1.039;0.0149;-0.6766;0.6914;290.0;-40.5;0.19;-15.06;33.89;61.89;79.91;5.0;33.253;39.468887;-0.340908;70.4;NaN;;15.207;;0 / 18;635;2021-10-20 00:23:34:711
-3.2095;-10.1498;-0.3317;0.1532;-0.0923;9.8041;0.7758;0.7295;-0.9405;0.0149;-0.6766;0.6914;290.0;-40.5;0.19;-15.06;33.89;61.89;79.91;5.0;33.253;39.468887;-0.340908;70.4;NaN;;15.207;;0 / 18;641;2021-10-20 00:23:34:717
-3.4913;-9.9893;0.0782;0.1532;-0.0923;9.8041;0.7758;0.7295;-0.9405;-0.0014;-0.5406;0.6625;290.0;-40.5;0.19;-15.06;33.89;61.89;79.91;5.0;33.253;39.468887;-0.340908;70.4;NaN;;15.207;;0 / 18;646;2021-10-20 00:23:34:722
-3.4913;-9.9893;0.0782;0.1532;-0.0923;9.8041;0.7758;0.7295;-0.9405;-0.0014;-0.5406;0.6625;290.0;-40.5;0.19;-15.06;33.89;61.89;79.91;5.0;33.253;39.468887;-0.340908;70.4;NaN;;15.207;;0 / 18;652;2021-10-20 00:23:34:728
-3.4913;-9.9893;0.0782;0.012;0.1172;9.806;0.6395;0.476;-0.9951;-0.0033;-0.4174;0.632;290.0;-40.39;0.54;-15.3;33.89;61.89;79.91;5.0;33.253;39.468887;-0.340908;70.4;NaN;;15.207;;0 / 18;656;2021-10-20 00:23:34:732
-3.6484;-9.9739;0.1311;0.012;0.1172;9.806;0.6395;0.476;-0.9951;-0.0033;-0.4174;0.632;290.0;-40.39;0.54;-15.3;33.89;61.89;79.91;5.0;33.253;39.468887;-0.340908;70.4;NaN;;15.207;;0 / 18;660;2021-10-20 00:23:34:736
-3.6484;-9.9739;0.1311;0.012;0.1172;9.806;0.6395;0.476;-0.9951;-0.0033;-0.4174;0.632;290.0;-40.39;0.54;-15.3;33.89;61.89;79.91;5.0;33.253;39.468887;-0.340908;70.4;NaN;;15.207;;0 / 18;666;2021-10-20 00:23:34:742
-3.6484;-9.9739;0.1311;0.2285;0.0924;9.8052;0.6395;0.476;-0.9951;-0.0033;-0.4174;0.632;290.0;-40.39;0.54;-15.3;33.89;61.89;79.91;5.0;33.253;39.468887;-0.340908;70.4;NaN;;15.207;;0 / 18;671;2021-10-20 00:23:34:747
-3.4725;-9.9617;0.291;0.2285;0.0924;9.8052;0.6395;0.476;-0.9951;-0.0033;-0.4174;0.632;290.0;-40.09;1.91;-15.49;35.1;60.68;78.26;5.0;33.253;39.468887;-0.340908;70.4;NaN;;15.207;;0 / 18;676;2021-10-20 00:23:34:752
-3.4725;-9.9617;0.291;0.2285;0.0924;9.8052;0.6395;0.476;-0.9951;-0.0033;-0.4174;0.632;290.0;-40.09;1.91;-15.49;35.1;60.68;78.26;5.0;33.253;39.468887;-0.340908;70.4;NaN;;15.207;;0 / 18;680;2021-10-20 00:23:34:756
-3.4725;-9.9617;0.291;0.1046;0.3272;9.8002;0.5362;0.6751;-1.1338;0.0033;-0.3156;0.6014;290.0;-40.09;1.91;-15.49;35.1;60.68;78.26;5.0;33.253;39.468887;-0.340908;70.4;NaN;;15.207;;0 / 18;686;2021-10-20 00:23:34:762
-3.4509;-9.8546;0.5238;0.1046;0.3272;9.8002;0.5362;0.6751;-1.1338;0.0033;-0.3156;0.6014;290.0;-40.09;1.91;-15.49;35.1;60.68;78.26;5.0;33.253;39.468887;-0.340908;70.4;NaN;;15.207;;0 / 18;691;2021-10-20 00:23:34:767
-3.4509;-9.8546;0.5238;0.1046;0.3272;9.8002;0.5362;0.6751;-1.1338;0.0045;-0.2434;0.576;290.0;-40.09;1.69;-15.6;35.1;60.68;78.26;5.0;33.253;39.468887;-0.340908;70.4;NaN;;15.207;;0 / 18;696;2021-10-20 00:23:34:772
-3.4509;-9.8546;0.5238;0.1046;0.3272;9.8002;0.5362;0.6751;-1.1338;0.0045;-0.2434;0.576;290.0;-40.09;1.69;-15.6;35.1;60.68;78.26;5.0;33.253;39.468887;-0.340908;70.4;NaN;;15.207;;0 / 18;701;2021-10-20 00:23:34:777
-3.3345;-9.6758;0.6814;0.3178;0.5554;9.7872;0.5181;0.5193;-1.3742;0.0045;-0.2434;0.576;36.0;-40.09;1.69;-15.6;35.1;60.68;78.26;5.0;33.253;39.468887;-0.340908;70.4;NaN;;15.207;;0 / 18;705;2021-10-20 00:23:34:781
-3.3345;-9.6758;0.6814;0.3178;0.5554;9.7872;0.5181;0.5193;-1.3742;0.0045;-0.2434;0.576;36.0;-40.09;1.69;-15.6;35.1;60.68;78.26;5.0;33.253;39.468887;-0.340908;70.4;NaN;;15.207;;0 / 18;711;2021-10-20 00:23:34:787
-3.3345;-9.6758;0.6814;0.3178;0.5554;9.7872;0.5181;0.5193;-1.3742;0.0045;-0.2434;0.576;36.0;-40.09;0.96;-15.6;37.17;56.96;78.9;5.0;33.253;39.468887;-0.340908;70.4;NaN;;15.207;;0 / 18;716;2021-10-20 00:23:34:792
-3.3345;-9.6758;0.6814;0.3178;0.5554;9.7872;0.5181;0.5193;-1.3742;0.0045;-0.2434;0.576;36.0;-40.09;0.96;-15.6;37.17;56.96;78.9;5.0;33.253;39.468887;-0.340908;70.4;NaN;;15.207;;0 / 18;720;2021-10-20 00:23:34:796
-3.3345;-9.6758;0.6814;0.3178;0.5554;9.7872;0.5181;0.5193;-1.3742;0.0045;-0.2434;0.576;36.0;-40.09;0.96;-15.6;37.17;56.96;78.9;5.0;33.253;39.468887;-0.340908;70.4;NaN;;15.207;;0 / 18;726;2021-10-20 00:23:34:802
-3.6866;-9.7177;0.1693;0.2032;-0.0387;9.805;0.3257;0.6127;-1.4533;0.0073;-0.188;0.5426;36.0;-40.09;0.96;-15.6;37.17;56.96;78.9;5.0;33.253;39.468887;-0.340908;70.4;NaN;;15.207;;0 / 18;730;2021-10-20 00:23:34:806
-3.6866;-9.7177;0.1693;0.2032;-0.0387;9.805;0.3257;0.6127;-1.4533;0.0073;-0.188;0.5426;36.0;-40.09;0.66;-15.71;37.17;56.96;78.9;5.0;33.253;39.468887;-0.340908;70.4;NaN;;15.207;;0 / 18;736;2021-10-20 00:23:34:812
-3.6866;-9.7177;0.1693;0.3484;-0.0016;9.8014;0.1101;0.358;-1.5141;0.0188;-0.1394;0.5085;36.0;-40.09;0.66;-15.71;37.17;56.96;78.9;5.0;33.253;39.468887;-0.340908;70.4;NaN;;15.207;;0 / 18;741;2021-10-20 00:23:34:817
-3.4498;-9.4907;0.3514;0.3484;-0.0016;9.8014;0.1101;0.358;-1.5141;0.0188;-0.1394;0.5085;36.0;-40.09;0.66;-15.71;37.17;56.96;78.9;5.0;33.253;39.468887;-0.340908;70.4;NaN;;15.207;;0 / 18;746;2021-10-20 00:23:34:822
-3.4498;-9.4907;0.3514;0.3484;-0.0016;9.8014;0.1101;0.358;-1.5141;0.0188;-0.1394;0.5085;36.0;-40.09;0.66;-15.71;37.17;56.96;78.9;5.0;33.253;39.468887;-0.340908;70.4;NaN;;15.207;;0 / 18;751;2021-10-20 00:23:34:827
-3.4498;-9.4907;0.3514;0.4914;0.0202;9.7946;0.1101;0.358;-1.5141;0.0188;-0.1394;0.5085;36.0;-39.79;0.54;-16.01;41.78;55.06;75.03;5.0;33.253;39.468887;-0.340908;70.4;NaN;;15.207;;0 / 18;756;2021-10-20 00:23:34:832
-3.5667;-9.3481;0.3432;0.4914;0.0202;9.7946;0.1101;0.358;-1.5141;0.0188;-0.1394;0.5085;36.0;-39.79;0.54;-16.01;41.78;55.06;75.03;5.0;33.253;39.468887;-0.340908;70.4;NaN;;15.207;;0 / 18;761;2021-10-20 00:23:34:837
-3.5667;-9.3481;0.3432;0.0911;0.1896;9.802;0.0148;0.353;-1.5703;0.054;-0.0979;0.4901;36.0;-39.79;0.54;-16.01;41.78;55.06;75.03;5.0;33.253;39.468887;-0.340908;70.4;NaN;;15.207;;0 / 18;766;2021-10-20 00:23:34:842
-3.5667;-9.3481;0.3432;0.0911;0.1896;9.802;0.0148;0.353;-1.5703;0.054;-0.0979;0.4901;36.0;-39.79;0.54;-16.01;41.78;55.06;75.03;5.0;33.253;39.468887;-0.340908;70.4;NaN;;15.207;;0 / 18;771;2021-10-20 00:23:34:847
-3.5476;-9.2019;0.5221;0.0911;0.1896;9.802;0.0148;0.353;-1.5703;0.054;-0.0979;0.4901;36.0;-39.79;0.19;-16.2;41.78;55.06;75.03;5.0;33.253;39.468887;-0.340908;70.4;NaN;;15.207;;0 / 18;776;2021-10-20 00:23:34:852
-3.5476;-9.2019;0.5221;0.2555;0.283;9.7987;-0.0374;0.2198;-1.7269;0.1048;-0.0687;0.4935;36.0;-39.79;0.19;-16.2;41.78;55.06;75.03;5.0;33.253;39.468887;-0.340908;70.4;NaN;;15.207;;0 / 18;781;2021-10-20 00:23:34:857
-3.5476;-9.2019;0.5221;0.2555;0.283;9.7987;-0.0374;0.2198;-1.7269;0.1048;-0.0687;0.4935;36.0;-39.79;0.19;-16.2;41.78;55.06;75.03;5.0;33.253;39.468887;-0.340908;70.4;NaN;;15.207;;0 / 18;786;2021-10-20 00:23:34:862
-3.4013;-9.1316;0.644;0.2555;0.283;9.7987;-0.0374;0.2198;-1.7269;0.1048;-0.0687;0.4935;36.0;-39.79;0.19;-16.2;41.78;55.06;75.03;5.0;33.253;39.468887;-0.340908;70.4;NaN;;15.207;;0 / 18;791;2021-10-20 00:23:34:867
-3.4013;-9.1316;0.644;0.2555;0.283;9.7987;-0.0374;0.2198;-1.7269;0.1048;-0.0687;0.4935;36.0;-39.79;0.19;-16.2;41.78;55.06;75.03;5.0;33.253;39.468887;-0.340908;70.4;NaN;;15.207;;0 / 18;809;2021-10-20 00:23:34:885
-3.4013;-9.1316;0.644;0.2555;0.283;9.7987;-0.0374;0.2198;-1.7269;0.1048;-0.0687;0.4935;36.0;-39.79;0.19;-16.2;41.78;55.06;75.03;5.0;33.253;39.468887;-0.340908;70.4;NaN;;15.207;;0 / 18;809;2021-10-20 00:23:34:885
-3.4013;-9.1316;0.644;0.2555;0.283;9.7987;-0.0374;0.2198;-1.7269;0.1048;-0.0687;0.4935;36.0;-39.79;0.19;-16.2;41.78;55.06;75.03;5.0;33.253;39.468887;-0.340908;70.4;NaN;;15.207;;0 / 18;809;2021-10-20 00:23:34:885
-3.4013;-9.1316;0.644;0.2555;0.283;9.7987;-0.0374;0.2198;-1.7269;0.1048;-0.0687;0.4935;36.0;-39.79;0.19;-16.2;41.78;55.06;75.03;5.0;33.253;39.468887;-0.340908;70.4;NaN;;15.207;;0 / 18;812;2021-10-20 00:23:34:888
-3.4013;-9.1316;0.644;0.2555;0.283;9.7987;-0.0374;0.2198;-1.7269;0.1048;-0.0687;0.4935;36.0;-39.79;0.19;-16.2;41.78;55.06;75.03;5.0;33.253;39.468887;-0.340908;70.4;NaN;;15.207;;0 / 18;819;2021-10-20 00:23:34:895
-3.4013;-9.1316;0.644;0.2555;0.283;9.7987;-0.0374;0.2198;-1.7269;0.1048;-0.0687;0.4935;36.0;-39.79;0.19;-16.2;41.78;55.06;75.03;5.0;33.253;39.468887;-0.340908;70.4;NaN;;15.207;;0 / 18;825;2021-10-20 00:23:34:901
-3.4013;-9.1316;0.644;0.2555;0.283;9.7987;-0.0374;0.2198;-1.7269;0.1048;-0.0687;0.4935;36.0;-39.79;0.19;-16.2;41.78;55.06;75.03;5.0;33.253;39.468887;-0.340908;70.4;NaN;;15.207;;0 / 18;826;2021-10-20 00:23:34:902
-3.3661;-9.1061;0.6651;0.1179;0.1806;9.8052;-0.1853;0.1002;-1.7057;0.2364;-0.0513;0.5716;36.0;-39.71;1.31;-16.2;42.56;52.84;75.01;5.0;33.253;39.468887;-0.340908;70.4;NaN;;15.207;;0 / 18;833;2021-10-20 00:23:34:909
-3.3661;-9.1061;0.6651;0.1179;0.1806;9.8052;-0.1853;0.1002;-1.7057;0.2364;-0.0513;0.5716;36.0;-39.71;1.31;-16.2;42.56;52.84;75.01;5.0;33.253;39.468887;-0.340908;70.4;NaN;;15.207;;0 / 18;839;2021-10-20 00:23:34:915
-3.3661;-9.1061;0.6651;0.1179;0.1806;9.8052;-0.1853;0.1002;-1.7057;0.2364;-0.0513;0.5716;36.0;-39.41;0.06;-16.61;42.56;52.84;75.01;5.0;33.253;39.468887;-0.340908;70.4;NaN;;15.207;;0 / 18;841;2021-10-20 00:23:34:917
-3.6306;-8.8748;0.4753;0.0691;0.2306;9.8021;-0.1178;-0.1037;-1.739;0.3191;-0.0572;0.6457;36.0;-39.41;0.06;-16.61;42.56;52.84;75.01;5.0;33.253;39.468887;-0.340908;70.4;NaN;;15.207;;0 / 18;849;2021-10-20 00:23:34:925
-3.6306;-8.8748;0.4753;0.0691;0.2306;9.8021;-0.1178;-0.1037;-1.739;0.3191;-0.0572;0.6457;36.0;-39.41;0.06;-16.61;42.56;52.84;75.01;5.0;33.253;39.468887;-0.340908;70.4;NaN;;15.207;;0 / 18;861;2021-10-20 00:23:34:937
-3.6306;-8.8748;0.4753;0.0691;0.2306;9.8021;-0.1178;-0.1037;-1.739;0.3191;-0.0572;0.6457;36.0;-39.41;0.06;-16.61;42.56;52.84;75.01;5.0;33.253;39.468887;-0.340908;70.4;NaN;;15.207;;0 / 18;861;2021-10-20 00:23:34:937
-3.6306;-8.8748;0.4753;0.0691;0.2306;9.8021;-0.1178;-0.1037;-1.739;0.3191;-0.0572;0.6457;36.0;-39.41;0.06;-16.61;42.56;52.84;75.01;5.0;33.253;39.468887;-0.340908;70.4;NaN;;15.207;;0 / 18;862;2021-10-20 00:23:34:938
-3.6306;-8.8748;0.4753;0.0691;0.2306;9.8021;-0.1178;-0.1037;-1.739;0.3191;-0.0572;0.6457;36.0;-39.41;0.06;-16.61;42.56;52.84;75.01;5.0;33.253;39.468887;-0.340908;70.4;NaN;;15.207;;0 / 18;866;2021-10-20 00:23:34:942
-3.6482;-8.9045;0.4322;-0.0356;0.0085;9.8083;-0.1083;-0.0578;-1.7417;0.3191;-0.0572;0.6457;36.0;-38.89;0.06;-16.69;44.47;51.57;76.0;5.0;33.253;39.468887;-0.340908;70.4;NaN;;15.207;;0 / 18;871;2021-10-20 00:23:34:947
-3.6482;-8.9045;0.4322;-0.0356;0.0085;9.8083;-0.1083;-0.0578;-1.7417;0.3191;-0.0572;0.6457;36.0;-38.89;0.06;-16.69;44.47;51.57;76.0;5.0;33.253;39.468887;-0.340908;70.4;NaN;;15.207;;0 / 18;876;2021-10-20 00:23:34:952
-3.6482;-8.9045;0.4322;-0.0356;0.0085;9.8083;-0.1083;-0.0578;-1.7417;0.3191;-0.0572;0.6457;36.0;-38.89;0.06;-16.69;44.47;51.57;76.0;5.0;33.253;39.468887;-0.340908;70.4;NaN;;15.207;;0 / 18;881;2021-10-20 00:23:34:957
-3.6482;-8.9045;0.4322;-0.0356;0.0085;9.8083;-0.1083;-0.0578;-1.7417;0.3191;-0.0572;0.6457;36.0;-38.89;0.06;-16.69;44.47;51.57;76.0;5.0;33.253;39.468887;-0.340908;70.4;NaN;;15.207;;0 / 18;886;2021-10-20 00:23:34:962
-4.08;-8.7171;0.016;-0.1884;-0.1272;9.8055;-0.0661;-0.0484;-1.6143;0.3314;-0.0487;0.6509;36.0;-38.51;-0.36;-16.91;44.47;51.57;76.0;5.0;33.253;39.468887;-0.340908;70.4;NaN;;15.207;;0 / 18;891;2021-10-20 00:23:34:967
-4.08;-8.7171;0.016;-0.1884;-0.1272;9.8055;-0.0661;-0.0484;-1.6143;0.3314;-0.0487;0.6509;36.0;-38.51;-0.36;-16.91;44.47;51.57;76.0;5.0;33.253;39.468887;-0.340908;70.4;NaN;;15.207;;0 / 18;896;2021-10-20 00:23:34:972
-4.08;-8.7171;0.016;-0.1884;-0.1272;9.8055;-0.0661;-0.0484;-1.6143;0.3314;-0.0487;0.6509;36.0;-38.51;-0.36;-16.91;44.47;51.57;76.0;5.0;33.253;39.468887;-0.340908;70.4;NaN;;15.207;;0 / 18;901;2021-10-20 00:23:34:977
-4.08;-8.7171;0.016;-0.1884;-0.1272;9.8055;-0.0661;-0.0484;-1.6143;0.3314;-0.0487;0.6509;36.0;-38.51;-0.36;-16.91;44.47;51.57;76.0;5.0;33.253;39.468887;-0.340908;70.4;NaN;;15.207;;0 / 18;906;2021-10-20 00:23:34:982
-4.08;-8.7171;0.016;-0.1884;-0.1272;9.8055;-0.0661;-0.0484;-1.6143;0.3314;-0.0487;0.6509;36.0;-38.51;-0.36;-16.91;44.47;51.57;76.0;5.0;33.253;39.468887;-0.340908;70.4;NaN;;15.207;;0 / 18;911;2021-10-20 00:23:34:987
-4.08;-8.7171;0.016;-0.1884;-0.1272;9.8055;-0.0661;-0.0484;-1.6143;0.3314;-0.0487;0.6509;36.0;-38.51;-0.36;-16.91;44.47;51.57;76.0;5.0;33.253;39.468887;-0.340908;70.4;NaN;;15.207;;0 / 18;915;2021-10-20 00:23:34:991
-4.08;-8.7171;0.016;-0.1884;-0.1272;9.8055;-0.0661;-0.0484;-1.6143;0.3314;-0.0487;0.6509;36.0;-38.51;-0.36;-16.91;44.47;51.57;76.0;5.0;33.253;39.468887;-0.340908;70.4;NaN;;15.207;;0 / 18;921;2021-10-20 00:23:34:997
-4.08;-8.7171;0.016;-0.1884;-0.1272;9.8055;-0.0661;-0.0484;-1.6143;0.3314;-0.0487;0.6509;36.0;-38.51;-0.36;-16.91;44.47;51.57;76.0;5.0;33.253;39.468887;-0.340908;70.4;NaN;;15.207;;0 / 18;926;2021-10-20 00:23:35:002
-4.08;-8.7171;0.016;-0.1884;-0.1272;9.8055;-0.0661;-0.0484;-1.6143;0.3314;-0.0487;0.6509;36.0;-38.51;-0.36;-16.91;44.47;51.57;76.0;5.0;33.253;39.468887;-0.340908;70.4;NaN;;15.207;;0 / 18;931;2021-10-20 00:23:35:007
-4.08;-8.7171;0.016;-0.1884;-0.1272;9.8055;-0.0661;-0.0484;-1.6143;0.3314;-0.0487;0.6509;36.0;-38.51;-0.36;-16.91;44.47;51.57;76.0;5.0;33.253;39.468887;-0.340908;70.4;NaN;;15.207;;0 / 18;936;2021-10-20 00:23:35:012
-4.08;-8.7171;0.016;-0.1884;-0.1272;9.8055;-0.0661;-0.0484;-1.6143;0.3314;-0.0487;0.6509;36.0;-38.51;-0.36;-16.91;44.47;51.57;76.0;5.0;33.253;39.468887;-0.340908;70.4;NaN;;15.207;;0 / 18;941;2021-10-20 00:23:35:017
-4.08;-8.7171;0.016;-0.1884;-0.1272;9.8055;-0.0661;-0.0484;-1.6143;0.3314;-0.0487;0.6509;36.0;-38.51;-0.36;-16.91;44.47;51.57;76.0;5.0;33.253;39.468887;-0.340908;70.4;NaN;;15.207;;0 / 18;946;2021-10-20 00:23:35:022
-4.08;-8.7171;0.016;-0.1884;-0.1272;9.8055;-0.0661;-0.0484;-1.6143;0.3314;-0.0487;0.6509;36.0;-38.51;-0.36;-16.91;44.47;51.57;76.0;5.0;33.253;39.468887;-0.340908;70.4;NaN;;15.207;;0 / 18;951;2021-10-20 00:23:35:027
-4.08;-8.7171;0.016;-0.1884;-0.1272;9.8055;-0.0661;-0.0484;-1.6143;0.3314;-0.0487;0.6509;36.0;-38.51;-0.36;-16.91;44.47;51.57;76.0;5.0;33.253;39.468887;-0.340908;70.4;NaN;;15.207;;0 / 18;956;2021-10-20 00:23:35:032
-4.08;-8.7171;0.016;-0.1884;-0.1272;9.8055;-0.0661;-0.0484;-1.6143;0.3314;-0.0487;0.6509;36.0;-38.51;-0.36;-16.91;44.47;51.57;76.0;5.0;33.253;39.468887;-0.340908;70.4;NaN;;15.207;;0 / 18;964;2021-10-20 00:23:35:040
-4.08;-8.7171;0.016;-0.1884;-0.1272;9.8055;-0.0661;-0.0484;-1.6143;0.3314;-0.0487;0.6509;36.0;-38.51;-0.36;-16.91;44.47;51.57;76.0;5.0;33.253;39.468887;-0.340908;70.4;NaN;;15.207;;0 / 18;966;2021-10-20 00:23:35:042
-4.08;-8.7171;0.016;-0.1884;-0.1272;9.8055;-0.0661;-0.0484;-1.6143;0.3314;-0.0487;0.6509;36.0;-38.51;-0.36;-16.91;44.47;51.57;76.0;5.0;33.253;39.468887;-0.340908;70.4;NaN;;15.207;;0 / 18;971;2021-10-20 00:23:35:047
-4.08;-8.7171;0.016;-0.1884;-0.1272;9.8055;-0.0661;-0.0484;-1.6143;0.3314;-0.0487;0.6509;36.0;-38.51;-0.36;-16.91;44.47;51.57;76.0;5.0;33.253;39.468887;-0.340908;70.4;NaN;;15.207;;0 / 18;976;2021-10-20 00:23:35:052
-4.08;-8.7171;0.016;-0.1884;-0.1272;9.8055;-0.0661;-0.0484;-1.6143;0.3314;-0.0487;0.6509;36.0;-38.51;-0.36;-16.91;44.47;51.57;76.0;5.0;33.253;39.468887;-0.340908;70.4;NaN;;15.207;;0 / 18;981;2021-10-20 00:23:35:057
-4.08;-8.7171;0.016;-0.1884;-0.1272;9.8055;-0.0661;-0.0484;-1.6143;0.3314;-0.0487;0.6509;36.0;-38.51;-0.36;-16.91;44.47;51.57;76.0;5.0;33.253;39.468887;-0.340908;70.4;NaN;;15.207;;0 / 18;985;2021-10-20 00:23:35:061
-4.08;-8.7171;0.016;-0.1884;-0.1272;9.8055;-0.0661;-0.0484;-1.6143;0.3314;-0.0487;0.6509;36.0;-38.51;-0.36;-16.91;44.47;51.57;76.0;5.0;33.253;39.468887;-0.340908;70.4;NaN;;15.207;;0 / 18;991;2021-10-20 00:23:35:067
-4.08;-8.7171;0.016;-0.1884;-0.1272;9.8055;-0.0661;-0.0484;-1.6143;0.3314;-0.0487;0.6509;36.0;-38.51;-0.36;-16.91;44.47;51.57;76.0;5.0;33.253;39.468887;-0.340908;70.4;NaN;;15.207;;0 / 18;996;2021-10-20 00:23:35:072
-4.08;-8.7171;0.016;-0.1884;-0.1272;9.8055;-0.0661;-0.0484;-1.6143;0.3314;-0.0487;0.6509;36.0;-38.51;-0.36;-16.91;44.47;51.57;76.0;5.0;33.253;39.468887;-0.340908;70.4;NaN;;15.207;;0 / 18;1000;2021-10-20 00:23:35:076
-4.08;-8.7171;0.016;-0.1884;-0.1272;9.8055;-0.0661;-0.0484;-1.6143;0.3314;-0.0487;0.6509;36.0;-38.51;-0.36;-16.91;44.47;51.57;76.0;5.0;33.253;39.468887;-0.340908;70.4;NaN;;15.207;;0 / 18;1006;2021-10-20 00:23:35:082
-4.08;-8.7171;0.016;-0.1884;-0.1272;9.8055;-0.0661;-0.0484;-1.6143;0.3314;-0.0487;0.6509;36.0;-38.51;-0.36;-16.91;44.47;51.57;76.0;5.0;33.253;39.468887;-0.340908;70.4;NaN;;15.207;;0 / 18;1011;2021-10-20 00:23:35:087
-4.08;-8.7171;0.016;-0.1884;-0.1272;9.8055;-0.0661;-0.0484;-1.6143;0.3314;-0.0487;0.6509;36.0;-38.51;-0.36;-16.91;44.47;51.57;76.0;5.0;33.253;39.468887;-0.340908;70.4;NaN;;15.207;;0 / 18;1017;2021-10-20 00:23:35:093
-4.08;-8.7171;0.016;-0.1884;-0.1272;9.8055;-0.0661;-0.0484;-1.6143;0.3314;-0.0487;0.6509;36.0;-38.51;-0.36;-16.91;44.47;51.57;76.0;5.0;33.253;39.468887;-0.340908;70.4;NaN;;15.207;;0 / 18;1021;2021-10-20 00:23:35:097
-4.08;-8.7171;0.016;-0.1884;-0.1272;9.8055;-0.0661;-0.0484;-1.6143;0.3314;-0.0487;0.6509;36.0;-38.51;-0.36;-16.91;44.47;51.57;76.0;5.0;33.253;39.468887;-0.340908;70.4;NaN;;15.207;;0 / 18;1026;2021-10-20 00:23:35:102
-4.08;-8.7171;0.016;-0.1884;-0.1272;9.8055;-0.0661;-0.0484;-1.6143;0.3314;-0.0487;0.6509;36.0;-38.51;-0.36;-16.91;44.47;51.57;76.0;5.0;33.253;39.468887;-0.340908;70.4;NaN;;15.207;;0 / 18;1031;2021-10-20 00:23:35:107
-4.08;-8.7171;0.016;-0.1884;-0.1272;9.8055;-0.0661;-0.0484;-1.6143;0.3314;-0.0487;0.6509;36.0;-38.51;-0.36;-16.91;44.47;51.57;76.0;5.0;33.253;39.468887;-0.340908;70.4;NaN;;15.207;;0 / 18;1037;2021-10-20 00:23:35:113
-4.08;-8.7171;0.016;-0.1884;-0.1272;9.8055;-0.0661;-0.0484;-1.6143;0.3314;-0.0487;0.6509;36.0;-38.51;-0.36;-16.91;44.47;51.57;76.0;5.0;33.253;39.468887;-0.340908;70.4;NaN;;15.207;;0 / 18;1041;2021-10-20 00:23:35:117
-4.08;-8.7171;0.016;-0.1884;-0.1272;9.8055;-0.0661;-0.0484;-1.6143;0.3314;-0.0487;0.6509;36.0;-38.51;-0.36;-16.91;44.47;51.57;76.0;5.0;33.253;39.468887;-0.340908;70.4;NaN;;15.207;;0 / 18;1046;2021-10-20 00:23:35:122
-4.08;-8.7171;0.016;-0.1884;-0.1272;9.8055;-0.0661;-0.0484;-1.6143;0.3314;-0.0487;0.6509;36.0;-38.51;-0.36;-16.91;44.47;51.57;76.0;5.0;33.253;39.468887;-0.340908;70.4;NaN;;15.207;;0 / 18;1050;2021-10-20 00:23:35:126
-4.08;-8.7171;0.016;-0.1884;-0.1272;9.8055;-0.0661;-0.0484;-1.6143;0.3314;-0.0487;0.6509;36.0;-38.51;-0.36;-16.91;44.47;51.57;76.0;5.0;33.253;39.468887;-0.340908;70.4;NaN;;15.207;;0 / 18;1056;2021-10-20 00:23:35:132
-4.08;-8.7171;0.016;-0.1884;-0.1272;9.8055;-0.0661;-0.0484;-1.6143;0.3314;-0.0487;0.6509;36.0;-38.51;-0.36;-16.91;44.47;51.57;76.0;5.0;33.253;39.468887;-0.340908;70.4;NaN;;15.207;;0 / 18;1062;2021-10-20 00:23:35:138
-4.2988;-8.6916;-0.2534;-0.3629;-0.0221;9.799;0.0804;-0.1481;-0.9851;0.2948;-0.028;0.6277;57.0;-38.76;0.24;-17.1;43.51;52.87;76.44;5.0;33.253;39.468887;-0.340908;70.4;NaN;;15.207;;0 / 18;1067;2021-10-20 00:23:35:143
-4.2988;-8.6916;-0.2534;-0.3629;-0.0221;9.799;0.0804;-0.1481;-0.9851;0.2948;-0.028;0.6277;57.0;-38.76;0.24;-17.1;43.51;52.87;76.44;5.0;33.253;39.468887;-0.340908;70.4;NaN;;15.207;;0 / 18;1071;2021-10-20 00:23:35:147
-4.2988;-8.6916;-0.2534;-0.3629;-0.0221;9.799;0.0804;-0.1481;-0.9851;0.2948;-0.028;0.6277;57.0;-38.76;0.24;-17.1;43.51;52.87;76.44;5.0;33.253;39.468887;-0.340908;70.4;NaN;;15.207;;0 / 18;1077;2021-10-20 00:23:35:153
-4.2988;-8.6916;-0.2534;-1.3402;-0.2435;9.7145;0.7146;-0.0611;0.4891;-0.2967;-0.0734;0.113;57.0;-38.76;0.24;-17.1;43.51;52.87;76.44;5.0;33.253;39.468887;-0.340908;70.4;NaN;;15.207;;0 / 18;1081;2021-10-20 00:23:35:157
-4.2988;-8.6916;-0.2534;-1.3402;-0.2435;9.7145;0.7146;-0.0611;0.4891;-0.2967;-0.0734;0.113;57.0;-38.76;0.24;-17.1;43.51;52.87;76.44;5.0;33.253;39.468887;-0.340908;70.4;NaN;;15.207;;0 / 18;1086;2021-10-20 00:23:35:162
-4.2988;-8.6916;-0.2534;-1.3402;-0.2435;9.7145;0.7146;-0.0611;0.4891;-0.2967;-0.0734;0.113;57.0;-38.76;0.24;-17.1;43.51;52.87;76.44;5.0;33.253;39.468887;-0.340908;70.4;NaN;;15.207;;0 / 18;1091;2021-10-20 00:23:35:167
-4.2988;-8.6916;-0.2534;-1.3402;-0.2435;9.7145;0.7146;-0.0611;0.4891;-0.2967;-0.0734;0.113;57.0;-38.76;0.24;-17.1;43.51;52.87;76.44;5.0;33.253;39.468887;-0.340908;70.4;NaN;;15.207;;0 / 18;1096;2021-10-20 00:23:35:172
-4.2988;-8.6916;-0.2534;-1.3402;-0.2435;9.7145;0.7146;-0.0611;0.4891;-0.2967;-0.0734;0.113;57.0;-38.76;0.24;-17.1;43.51;52.87;76.44;5.0;33.253;39.468887;-0.340908;70.4;NaN;;15.207;;0 / 18;1102;2021-10-20 00:23:35:178
-4.2988;-8.6916;-0.2534;-1.3402;-0.2435;9.7145;0.7146;-0.0611;0.4891;-0.2967;-0.0734;0.113;57.0;-38.76;0.24;-17.1;43.51;52.87;76.44;5.0;33.253;39.468887;-0.340908;70.4;NaN;;15.207;;0 / 18;1106;2021-10-20 00:23:35:182
-4.2988;-8.6916;-0.2534;-1.3402;-0.2435;9.7145;0.7146;-0.0611;0.4891;-0.2967;-0.0734;0.113;57.0;-38.76;0.24;-17.1;43.51;52.87;76.44;5.0;33.253;39.468887;-0.340908;70.4;NaN;;15.207;;0 / 18;1111;2021-10-20 00:23:35:187
-4.2988;-8.6916;-0.2534;-1.3402;-0.2435;9.7145;0.7146;-0.0611;0.4891;-0.2967;-0.0734;0.113;57.0;-38.76;0.24;-17.1;43.51;52.87;76.44;5.0;33.253;39.468887;-0.340908;70.4;NaN;;15.207;;0 / 18;1115;2021-10-20 00:23:35:191
-4.2988;-8.6916;-0.2534;-1.3402;-0.2435;9.7145;0.7146;-0.0611;0.4891;-0.2967;-0.0734;0.113;57.0;-38.76;0.24;-17.1;43.51;52.87;76.44;5.0;33.253;39.468887;-0.340908;70.4;NaN;;15.207;;0 / 18;1121;2021-10-20 00:23:35:197
-4.2988;-8.6916;-0.2534;-1.3402;-0.2435;9.7145;0.7146;-0.0611;0.4891;-0.2967;-0.0734;0.113;57.0;-38.76;0.24;-17.1;43.51;52.87;76.44;5.0;33.253;39.468887;-0.340908;70.4;NaN;;15.207;;0 / 18;1126;2021-10-20 00:23:35:202
-4.9573;-8.6296;-0.8661;-1.3612;-0.205;9.7127;0.7146;-0.0611;0.4891;-0.2967;-0.0734;0.113;57.0;-39.24;-1.99;-17.21;32.14;58.89;86.05;5.0;33.253;39.468887;-0.340908;70.4;NaN;;15.207;;0 / 18;1131;2021-10-20 00:23:35:207
-4.9573;-8.6296;-0.8661;-1.3612;-0.205;9.7127;0.7146;-0.0611;0.4891;-0.2967;-0.0734;0.113;57.0;-39.24;-1.99;-17.21;32.14;58.89;86.05;5.0;33.253;39.468887;-0.340908;70.4;NaN;;15.207;;0 / 18;1136;2021-10-20 00:23:35:212
-4.9573;-8.6296;-0.8661;-1.3612;-0.205;9.7127;0.7146;-0.0611;0.4891;-0.2967;-0.0734;0.113;57.0;-39.24;-1.99;-17.21;32.14;58.89;86.05;5.0;33.253;39.468887;-0.340908;70.4;NaN;;15.207;;0 / 18;1141;2021-10-20 00:23:35:217
-4.0613;-9.0714;-0.0469;0.3014;-0.2684;9.7974;0.3626;-0.0241;0.4438;-0.3681;-0.0304;-0.0968;57.0;-39.24;-1.99;-17.21;32.14;58.89;86.05;5.0;40.954;39.468887;-0.340908;70.4;NaN;;15.207;;0 / 18;1146;2021-10-20 00:23:35:222
-4.0613;-9.0714;-0.0469;0.3014;-0.2684;9.7974;0.3626;-0.0241;0.4438;-0.3681;-0.0304;-0.0968;57.0;-39.24;-1.99;-17.21;32.14;58.89;86.05;5.0;40.954;39.468887;-0.340908;70.4;NaN;;15.207;;0 / 18;1151;2021-10-20 00:23:35:227
-4.0613;-9.0714;-0.0469;0.3773;-0.3194;9.7957;0.3626;-0.0241;0.4438;-0.3681;-0.0304;-0.0968;57.0;-39.19;-2.81;-17.46;32.14;58.89;86.05;5.0;40.954;39.468887;-0.340908;70.4;NaN;;15.207;;0 / 18;1155;2021-10-20 00:23:35:231
-3.9934;-9.1299;-0.0631;0.3773;-0.3194;9.7957;0.3626;-0.0241;0.4438;-0.3681;-0.0304;-0.0968;57.0;-39.19;-2.81;-17.46;32.14;58.89;86.05;5.0;40.954;39.468887;-0.340908;70.4;NaN;;15.207;;0 / 18;1160;2021-10-20 00:23:35:236
-3.9934;-9.1299;-0.0631;0.3773;-0.3194;9.7957;0.3626;-0.0241;0.4438;-0.3681;-0.0304;-0.0968;57.0;-39.19;-2.81;-17.46;32.14;58.89;86.05;5.0;40.954;39.468887;-0.340908;70.4;NaN;;15.207;;0 / 18;1166;2021-10-20 00:23:35:242
-3.9934;-9.1299;-0.0631;0.4843;-0.394;9.7863;0.168;0.1037;0.428;-0.3644;-0.019;-0.1408;57.0;-39.19;-2.81;-17.46;32.14;58.89;86.05;5.0;40.954;39.468887;-0.340908;70.4;NaN;;15.207;;0 / 18;1171;2021-10-20 00:23:35:247
-3.9219;-9.2084;-0.0722;0.4843;-0.394;9.7863;0.168;0.1037;0.428;-0.3644;-0.019;-0.1408;57.0;-39.19;-2.81;-17.46;32.14;58.89;86.05;5.0;40.954;39.468887;-0.340908;70.4;NaN;;15.207;;0 / 18;1176;2021-10-20 00:23:35:252
-3.9219;-9.2084;-0.0722;0.0294;0.0019;9.8076;-0.012;0.2461;0.3856;-0.3644;-0.019;-0.1408;57.0;-39.3;-2.7;-17.51;41.54;59.14;78.97;5.0;40.954;39.468887;-0.340908;70.4;NaN;;15.207;;0 / 18;1181;2021-10-20 00:23:35:257
-3.9219;-9.2084;-0.0722;0.0294;0.0019;9.8076;-0.012;0.2461;0.3856;-0.3644;-0.019;-0.1408;57.0;-39.3;-2.7;-17.51;41.54;59.14;78.97;5.0;40.954;39.468887;-0.340908;70.4;NaN;;15.207;;0 / 18;1185;2021-10-20 00:23:35:261
-4.42;-9.0752;0.0983;0.0434;-0.067;9.8046;-0.012;0.2461;0.3856;-0.3644;-0.019;-0.1408;57.0;-39.49;-2.4;-17.46;41.54;59.14;78.97;5.0;40.954;39.468887;-0.340908;70.4;NaN;;15.207;;0 / 18;1194;2021-10-20 00:23:35:270
-4.42;-9.0752;0.0983;0.0434;-0.067;9.8046;-0.012;0.2461;0.3856;-0.3644;-0.019;-0.1408;57.0;-39.49;-2.4;-17.46;41.54;59.14;78.97;5.0;40.954;39.468887;-0.340908;70.4;NaN;;15.207;;0 / 18;1196;2021-10-20 00:23:35:272
-4.4285;-9.0689;0.0524;0.0434;-0.067;9.8046;-0.012;0.2461;0.3856;-0.3215;0.0039;-0.1783;57.0;-39.49;-2.4;-17.46;41.54;59.14;78.97;5.0;40.954;39.468887;-0.340908;70.4;NaN;;15.207;;0 / 18;1201;2021-10-20 00:23:35:277
-4.4285;-9.0689;0.0524;0.0434;-0.067;9.8046;-0.012;0.2461;0.3856;-0.3215;0.0039;-0.1783;57.0;-39.49;-2.4;-17.46;41.54;59.14;78.97;5.0;40.954;39.468887;-0.340908;70.4;NaN;;15.207;;0 / 18;1206;2021-10-20 00:23:35:282
-4.4285;-9.0689;0.0524;-0.0236;-0.1645;9.8069;-0.0565;0.3439;0.4001;-0.3215;0.0039;-0.1783;57.0;-39.49;-2.4;-17.46;41.54;59.14;78.97;5.0;40.954;39.468887;-0.340908;70.4;NaN;;15.207;;0 / 18;1211;2021-10-20 00:23:35:287
-4.4352;-9.1111;-0.0356;-0.0236;-0.1645;9.8069;-0.0565;0.3439;0.4001;-0.3215;0.0039;-0.1783;57.0;-39.6;-2.29;-17.29;40.03;59.95;77.9;5.0;40.954;39.468887;-0.340908;70.4;NaN;;15.207;;0 / 18;1216;2021-10-20 00:23:35:292
-4.4352;-9.1111;-0.0356;-0.0236;-0.1645;9.8069;-0.0565;0.3439;0.4001;-0.3215;0.0039;-0.1783;57.0;-39.6;-2.29;-17.29;40.03;59.95;77.9;5.0;40.954;39.468887;-0.340908;70.4;NaN;;15.207;;0 / 18;1221;2021-10-20 00:23:35:297
-4.4352;-9.1111;-0.0356;-0.0236;-0.1645;9.8069;-0.0565;0.3439;0.4001;-0.3215;0.0039;-0.1783;57.0;-39.6;-2.29;-17.29;40.03;59.95;77.9;5.0;40.954;39.468887;-0.340908;70.4;NaN;;15.207;;0 / 18;1226;2021-10-20 00:23:35:302
-4.1623;-9.2991;0.0689;-0.1336;-0.0014;9.8078;-0.0609;0.3927;0.4985;-0.281;0.0283;-0.1924;57.0;-39.49;-1.99;-17.16;40.03;59.95;77.9;5.0;40.954;39.468887;-0.340908;70.4;NaN;;15.207;;0 / 18;1239;2021-10-20 00:23:35:315
-4.1623;-9.2991;0.0689;-0.1336;-0.0014;9.8078;-0.0609;0.3927;0.4985;-0.281;0.0283;-0.1924;57.0;-39.49;-1.99;-17.16;40.03;59.95;77.9;5.0;40.954;39.468887;-0.340908;70.4;NaN;;15.207;;0 / 18;1240;2021-10-20 00:23:35:316
-4.1623;-9.2991;0.0689;-0.1336;-0.0014;9.8078;-0.0609;0.3927;0.4985;-0.281;0.0283;-0.1924;57.0;-39.49;-1.99;-17.16;40.03;59.95;77.9;5.0;40.954;39.468887;-0.340908;70.4;NaN;;15.207;;0 / 18;1242;2021-10-20 00:23:35:318
-4.1366;-9.3614;-0.0232;-0.1388;-0.0893;9.8057;0.0458;0.4547;0.5816;-0.281;0.0283;-0.1924;57.0;-39.49;-1.99;-17.16;40.03;59.95;77.9;5.0;40.954;39.468887;-0.340908;70.4;NaN;;15.207;;0 / 18;1248;2021-10-20 00:23:35:324
-4.1366;-9.3614;-0.0232;-0.1388;-0.0893;9.8057;0.0458;0.4547;0.5816;-0.281;0.0283;-0.1924;57.0;-39.41;-1.91;-17.21;39.7;60.87;78.49;5.0;40.954;39.468887;-0.340908;70.4;NaN;;15.207;;0 / 18;1253;2021-10-20 00:23:35:329
-4.1757;-9.4513;0.069;0.0094;-0.0225;9.8062;0.0042;0.5674;0.5722;-0.281;0.0283;-0.1924;57.0;-39.41;-1.91;-17.21;39.7;60.87;78.49;5.0;40.954;39.468887;-0.340908;70.4;NaN;;15.207;;0 / 18;1256;2021-10-20 00:23:35:332
-4.1757;-9.4513;0.069;0.0094;-0.0225;9.8062;0.0042;0.5674;0.5722;-0.281;0.0283;-0.1924;57.0;-39.41;-1.91;-17.21;39.7;60.87;78.49;5.0;40.954;39.468887;-0.340908;70.4;NaN;;15.207;;0 / 18;1261;2021-10-20 00:23:35:337
-4.1757;-9.4513;0.069;0.0094;-0.0225;9.8062;0.0042;0.5674;0.5722;-0.281;0.0283;-0.1924;57.0;-39.41;-1.91;-17.21;39.7;60.87;78.49;5.0;40.954;39.468887;-0.340908;70.4;NaN;;15.207;;0 / 18;1266;2021-10-20 00:23:35:342
-4.1924;-9.5183;-0.0481;-0.0468;-0.1409;9.8067;0.0042;0.5674;0.5722;-0.2222;0.0434;-0.1932;57.0;-39.41;-1.91;-17.21;39.7;60.87;78.49;5.0;40.954;39.468887;-0.340908;70.4;NaN;;15.207;;0 / 18;1271;2021-10-20 00:23:35:347
-4.1924;-9.5183;-0.0481;-0.0468;-0.1409;9.8067;0.0042;0.5674;0.5722;-0.2222;0.0434;-0.1932;57.0;-39.3;-2.21;-16.99;39.7;60.87;78.49;5.0;40.954;39.468887;-0.340908;70.4;NaN;;15.207;;0 / 18;1276;2021-10-20 00:23:35:352
-4.1924;-9.5183;-0.0481;-0.0468;-0.1409;9.8067;0.0042;0.5674;0.5722;-0.2222;0.0434;-0.1932;57.0;-39.3;-2.21;-16.99;39.7;60.87;78.49;5.0;40.954;39.468887;-0.340908;70.4;NaN;;15.207;;0 / 18;1281;2021-10-20 00:23:35:357
-4.1924;-9.5183;-0.0481;-0.0219;-0.2139;9.8062;-2.0E-4;0.6732;0.6749;-0.1445;0.0601;-0.1972;57.0;-39.3;-2.21;-16.99;39.7;60.87;78.49;5.0;40.954;39.468887;-0.340908;70.4;NaN;;15.207;;0 / 18;1286;2021-10-20 00:23:35:362
-4.1864;-9.5297;-0.0886;-0.0219;-0.2139;9.8062;-2.0E-4;0.6732;0.6749;-0.1445;0.0601;-0.1972;57.0;-39.3;-2.21;-16.99;39.7;60.87;78.49;5.0;40.954;39.468887;-0.340908;70.4;NaN;;15.207;;0 / 18;1291;2021-10-20 00:23:35:367
-4.1864;-9.5297;-0.0886;-0.0219;-0.2139;9.8062;-2.0E-4;0.6732;0.6749;-0.1445;0.0601;-0.1972;57.0;-39.0;-1.91;-16.91;40.94;61.9;77.0;5.0;40.954;39.468887;-0.340908;70.4;NaN;;15.207;;0 / 18;1295;2021-10-20 00:23:35:371
-4.1864;-9.5297;-0.0886;-0.0219;-0.2139;9.8062;-2.0E-4;0.6732;0.6749;-0.1445;0.0601;-0.1972;57.0;-39.0;-1.91;-16.91;40.94;61.9;77.0;5.0;40.954;39.468887;-0.340908;70.4;NaN;;15.207;;0 / 18;1301;2021-10-20 00:23:35:377
-4.2359;-9.5389;0.0535;-0.1061;-0.0018;9.8087;0.0272;0.6822;0.7229;-0.0722;0.0762;-0.2028;57.0;-39.0;-1.91;-16.91;40.94;61.9;77.0;5.0;40.954;39.468887;-0.340908;70.4;NaN;;15.207;;0 / 18;1306;2021-10-20 00:23:35:382
-4.2359;-9.5389;0.0535;-0.1061;-0.0018;9.8087;0.0272;0.6822;0.7229;-0.0722;0.0762;-0.2028;57.0;-39.0;-1.91;-16.91;40.94;61.9;77.0;5.0;40.954;39.468887;-0.340908;70.4;NaN;;15.207;;0 / 18;1310;2021-10-20 00:23:35:386
-4.2359;-9.5389;0.0535;-0.1061;-0.0018;9.8087;0.0272;0.6822;0.7229;-0.0722;0.0762;-0.2028;57.0;-38.94;0.06;-16.91;40.94;61.9;77.0;5.0;40.954;39.468887;-0.340908;70.4;NaN;;15.207;;0 / 18;1315;2021-10-20 00:23:35:391
-4.2522;-9.5167;0.1009;-0.0953;0.0364;9.8062;0.0861;0.6402;0.6719;-0.032;0.0892;-0.2108;57.0;-38.94;0.06;-16.91;40.94;61.9;77.0;5.0;40.954;39.468887;-0.340908;70.4;NaN;;15.207;;0 / 18;1321;2021-10-20 00:23:35:397
-4.2522;-9.5167;0.1009;-0.0953;0.0364;9.8062;0.0861;0.6402;0.6719;-0.032;0.0892;-0.2108;57.0;-38.94;0.06;-16.91;40.94;61.9;77.0;5.0;40.954;39.468887;-0.340908;70.4;NaN;;15.207;;0 / 18;1326;2021-10-20 00:23:35:402
-4.2522;-9.5167;0.1009;-0.0953;0.0364;9.8062;0.0861;0.6402;0.6719;-0.032;0.0892;-0.2108;57.0;-38.94;0.06;-16.91;40.94;61.9;77.0;5.0;40.954;39.468887;-0.340908;70.4;NaN;;15.207;;0 / 18;1331;2021-10-20 00:23:35:407
-4.1358;-9.4958;0.1524;-0.0178;0.0567;9.8089;0.0861;0.6402;0.6719;-0.032;0.0892;-0.2108;57.0;-39.06;0.19;-16.69;39.45;61.72;77.62;5.0;40.954;39.468887;-0.340908;70.4;NaN;;15.207;;0 / 18;1336;2021-10-20 00:23:35:412
-4.1358;-9.4958;0.1524;-0.0178;0.0567;9.8089;0.0861;0.6402;0.6719;-0.032;0.0892;-0.2108;57.0;-39.06;0.19;-16.69;39.45;61.72;77.62;5.0;40.954;39.468887;-0.340908;70.4;NaN;;15.207;;0 / 18;1341;2021-10-20 00:23:35:417
-4.1358;-9.4958;0.1524;-0.0178;0.0567;9.8089;0.0861;0.6402;0.6719;-0.032;0.0892;-0.2108;57.0;-39.06;0.19;-16.69;39.45;61.72;77.62;5.0;40.954;39.468887;-0.340908;70.4;NaN;;15.207;;0 / 18;1346;2021-10-20 00:23:35:422
-4.1358;-9.4958;0.1524;-0.0178;0.0567;9.8089;0.0861;0.6402;0.6719;-0.032;0.0892;-0.2108;57.0;-39.06;0.19;-16.69;39.45;61.72;77.62;5.0;40.954;39.468887;-0.340908;70.4;NaN;;15.207;;0 / 18;1352;2021-10-20 00:23:35:428
-4.0144;-9.5486;0.1262;0.006;0.0211;9.809;0.0041;0.5939;0.5604;-0.0346;0.1031;-0.2204;57.0;-39.06;0.19;-16.69;39.45;61.72;77.62;5.0;40.954;39.468887;-0.340908;70.4;NaN;;15.207;;0 / 18;1355;2021-10-20 00:23:35:431
-4.0144;-9.5486;0.1262;0.006;0.0211;9.809;0.0041;0.5939;0.5604;-0.0346;0.1031;-0.2204;57.0;-38.81;0.11;-16.8;39.45;61.72;77.62;5.0;40.954;39.468887;-0.340908;70.4;NaN;;15.207;;0 / 18;1363;2021-10-20 00:23:35:439
-4.0144;-9.5486;0.1262;0.006;0.0211;9.809;0.0041;0.5939;0.5604;-0.0346;0.1031;-0.2204;57.0;-38.81;0.11;-16.8;39.45;61.72;77.62;5.0;40.954;39.468887;-0.340908;70.4;NaN;;15.207;;0 / 18;1366;2021-10-20 00:23:35:442
-3.8865;-9.5572;0.2367;0.1455;0.0456;9.8071;0.0307;0.6335;0.5125;-0.0678;0.1198;-0.2306;57.0;-38.81;0.11;-16.8;39.45;61.72;77.62;5.0;40.954;39.468887;-0.340908;70.4;NaN;;15.207;;0 / 18;1371;2021-10-20 00:23:35:447
-3.8865;-9.5572;0.2367;0.1455;0.0456;9.8071;0.0307;0.6335;0.5125;-0.0678;0.1198;-0.2306;57.0;-38.59;-0.3;-16.86;40.69;60.97;76.62;5.0;40.954;39.468887;-0.340908;70.4;NaN;;15.207;;0 / 18;1376;2021-10-20 00:23:35:452
-3.8865;-9.5572;0.2367;0.1455;0.0456;9.8071;0.0307;0.6335;0.5125;-0.0678;0.1198;-0.2306;57.0;-38.59;-0.3;-16.86;40.69;60.97;76.62;5.0;40.954;39.468887;-0.340908;70.4;NaN;;15.207;;0 / 18;1381;2021-10-20 00:23:35:457
-3.8784;-9.586;0.177;0.0516;-0.0063;9.8078;-0.0561;0.6268;0.2853;-0.0924;0.1313;-0.2333;57.0;-38.59;-0.3;-16.86;40.69;60.97;76.62;5.0;40.954;39.468887;-0.340908;70.4;NaN;;15.207;;0 / 18;1386;2021-10-20 00:23:35:462
-3.8784;-9.586;0.177;0.0516;-0.0063;9.8078;-0.0561;0.6268;0.2853;-0.0924;0.1313;-0.2333;57.0;-38.59;-0.3;-16.86;40.69;60.97;76.62;5.0;40.954;39.468887;-0.340908;70.4;NaN;;15.207;;0 / 18;1390;2021-10-20 00:23:35:466
-3.93;-9.5228;0.1712;0.0516;-0.0063;9.8078;-0.0561;0.6268;0.2853;-0.0924;0.1313;-0.2333;57.0;-38.64;-0.3;-17.21;40.69;60.97;76.62;5.0;40.954;39.468887;-0.340908;70.4;NaN;;15.207;;0 / 18;1395;2021-10-20 00:23:35:471
-3.93;-9.5228;0.1712;-0.0103;-0.0188;9.8076;-0.0928;0.5833;0.2588;-0.0968;0.1361;-0.2269;57.0;-38.64;-0.3;-17.21;40.69;60.97;76.62;5.0;40.954;39.468887;-0.340908;70.4;NaN;;15.207;;0 / 18;1401;2021-10-20 00:23:35:477
-3.93;-9.5228;0.1712;-0.0103;-0.0188;9.8076;-0.0928;0.5833;0.2588;-0.0968;0.1361;-0.2269;57.0;-38.64;-0.3;-17.21;40.69;60.97;76.62;5.0;40.954;39.468887;-0.340908;70.4;NaN;;15.207;;0 / 18;1405;2021-10-20 00:23:35:481
-3.9131;-9.5222;0.1226;-0.0103;-0.0188;9.8076;-0.0928;0.5833;0.2588;-0.0968;0.1361;-0.2269;57.0;-38.64;-0.3;-17.21;40.69;60.97;76.62;5.0;40.954;39.468887;-0.340908;70.4;NaN;;15.207;;0 / 18;1411;2021-10-20 00:23:35:487
-3.9131;-9.5222;0.1226;-0.0103;-0.0188;9.8076;-0.0928;0.5833;0.2588;-0.0968;0.1361;-0.2269;57.0;-38.64;-0.3;-17.21;40.69;60.97;76.62;5.0;40.954;39.468887;-0.340908;70.4;NaN;;15.207;;0 / 18;1416;2021-10-20 00:23:35:492
-3.9131;-9.5222;0.1226;-0.0074;0.0163;9.8063;-0.0466;0.5844;0.2664;-0.0936;0.1357;-0.2149;57.0;-38.64;-0.3;-17.1;40.71;61.09;76.57;5.0;40.954;39.468887;-0.340908;70.4;NaN;;15.207;;0 / 18;1421;2021-10-20 00:23:35:497
-4.0007;-9.5471;0.0803;-0.0074;0.0163;9.8063;-0.0466;0.5844;0.2664;-0.0936;0.1357;-0.2149;57.0;-38.64;-0.3;-17.1;40.71;61.09;76.57;5.0;40.954;39.468887;-0.340908;70.4;NaN;;15.207;;0 / 18;1426;2021-10-20 00:23:35:502
-4.0007;-9.5471;0.0803;-0.0074;0.0163;9.8063;-0.0466;0.5844;0.2664;-0.0936;0.1357;-0.2149;57.0;-38.64;-0.3;-17.1;40.71;61.09;76.57;5.0;40.954;39.468887;-0.340908;70.4;NaN;;15.207;;0 / 18;1431;2021-10-20 00:23:35:507
-4.0007;-9.5471;0.0803;-0.1508;-0.0346;9.8045;-0.0466;0.5844;0.2664;-0.0936;0.1357;-0.2149;57.0;-38.64;0.3;-17.4;40.71;61.09;76.57;5.0;40.954;39.468887;-0.340908;70.4;NaN;;15.207;;0 / 18;1436;2021-10-20 00:23:35:512
-4.0489;-9.4323;0.0265;-0.1508;-0.0346;9.8045;-0.0466;0.5844;0.2664;-0.0936;0.1357;-0.2149;57.0;-38.64;0.3;-17.4;40.71;61.09;76.57;5.0;40.954;39.468887;-0.340908;70.4;NaN;;15.207;;0 / 18;1440;2021-10-20 00:23:35:516
-4.0489;-9.4323;0.0265;-0.1839;0.0545;9.8025;0.0741;0.5201;0.386;-0.111;0.142;-0.2032;57.0;-38.64;0.3;-17.4;40.71;61.09;76.57;5.0;40.954;39.468887;-0.340908;70.4;NaN;;15.207;;0 / 18;1446;2021-10-20 00:23:35:522
-4.0489;-9.4323;0.0265;-0.1839;0.0545;9.8025;0.0741;0.5201;0.386;-0.111;0.142;-0.2032;57.0;-38.64;0.3;-17.4;40.71;61.09;76.57;5.0;40.954;39.468887;-0.340908;70.4;NaN;;15.207;;0 / 18;1450;2021-10-20 00:23:35:526
-4.0955;-9.3897;0.0984;-0.1839;0.0545;9.8025;0.0741;0.5201;0.386;-0.1257;0.1434;-0.1849;57.0;-38.76;-0.49;-17.29;38.37;61.54;78.71;5.0;40.954;39.468887;-0.340908;70.4;NaN;;15.207;;0 / 18;1456;2021-10-20 00:23:35:532
-4.0955;-9.3897;0.0984;0.0064;0.123;9.8043;0.1539;0.4323;0.2351;-0.1257;0.1434;-0.1849;57.0;-38.76;-0.49;-17.29;38.37;61.54;78.71;5.0;40.954;39.468887;-0.340908;70.4;NaN;;15.207;;0 / 18;1461;2021-10-20 00:23:35:537
-4.0482;-9.3534;0.2346;0.0064;0.123;9.8043;0.1539;0.4323;0.2351;-0.1257;0.1434;-0.1849;57.0;-38.76;-0.49;-17.29;38.37;61.54;78.71;5.0;40.954;39.468887;-0.340908;70.4;NaN;;15.207;;0 / 18;1466;2021-10-20 00:23:35:542
-4.0482;-9.3534;0.2346;0.0064;0.123;9.8043;0.1539;0.4323;0.2351;-0.1257;0.1434;-0.1849;57.0;-38.76;-0.49;-17.29;38.37;61.54;78.71;5.0;42.538;39.468887;-0.340908;70.4;NaN;;15.207;;0 / 18;1471;2021-10-20 00:23:35:547
-4.0482;-9.3534;0.2346;0.0588;0.2603;9.804;0.1886;0.3215;0.0472;-0.1257;0.1434;-0.1849;57.0;-38.94;-0.9;-17.46;38.37;61.54;78.71;5.0;42.538;39.468887;-0.340908;70.4;NaN;;15.207;;0 / 18;1475;2021-10-20 00:23:35:551
-4.0482;-9.3534;0.2346;0.0588;0.2603;9.804;0.1886;0.3215;0.0472;-0.1257;0.1434;-0.1849;57.0;-38.94;-0.9;-17.46;38.37;61.54;78.71;5.0;42.538;39.468887;-0.340908;70.4;NaN;;15.207;;0 / 18;1481;2021-10-20 00:23:35:557
-4.0057;-9.3037;0.3246;0.0588;0.2603;9.804;0.1886;0.3215;0.0472;-0.1173;0.1309;-0.161;57.0;-38.94;-0.9;-17.46;38.37;61.54;78.71;5.0;42.538;39.468887;-0.340908;70.4;NaN;;15.207;;0 / 18;1487;2021-10-20 00:23:35:563
-4.0057;-9.3037;0.3246;0.0847;0.2975;9.8013;0.1886;0.3215;0.0472;-0.1173;0.1309;-0.161;57.0;-38.94;-0.9;-17.46;38.37;61.54;78.71;5.0;42.538;39.468887;-0.340908;70.4;NaN;;15.207;;0 / 18;1491;2021-10-20 00:23:35:567
-4.0057;-9.3037;0.3246;0.0847;0.2975;9.8013;0.1886;0.3215;0.0472;-0.1173;0.1309;-0.161;57.0;-38.94;-0.9;-17.46;38.37;61.54;78.71;5.0;42.538;39.468887;-0.340908;70.4;NaN;;15.207;;0 / 18;1495;2021-10-20 00:23:35:571
-4.0057;-9.3037;0.3246;0.0847;0.2975;9.8013;0.1886;0.3215;0.0472;-0.1173;0.1309;-0.161;57.0;-38.94;-0.9;-17.46;38.37;61.54;78.71;5.0;42.538;39.468887;-0.340908;70.4;NaN;;15.207;;0 / 18;1501;2021-10-20 00:23:35:577
-4.024;-9.273;0.4156;0.0363;-0.0138;9.8078;0.2071;0.2371;-0.0453;-0.1081;0.1163;-0.1402;57.0;-38.89;-0.96;-17.64;39.13;59.86;80.09;5.0;42.538;39.468887;-0.340908;70.4;NaN;;15.207;;0 / 18;1506;2021-10-20 00:23:35:582
-4.024;-9.273;0.4156;0.0363;-0.0138;9.8078;0.2071;0.2371;-0.0453;-0.1081;0.1163;-0.1402;57.0;-38.89;-0.96;-17.64;39.13;59.86;80.09;5.0;42.538;39.468887;-0.340908;70.4;NaN;;15.207;;0 / 18;1511;2021-10-20 00:23:35:587
-4.024;-9.273;0.4156;0.0363;-0.0138;9.8078;0.2071;0.2371;-0.0453;-0.1081;0.1163;-0.1402;57.0;-38.89;-0.96;-17.64;39.13;59.86;80.09;5.0;42.538;39.468887;-0.340908;70.4;NaN;;15.207;;0 / 18;1517;2021-10-20 00:23:35:593
-4.3396;-9.1703;0.1386;0.0818;0.0441;9.8063;0.2092;0.2957;-0.1021;-0.0902;0.0982;-0.1171;57.0;-38.94;-1.8;-17.64;39.13;59.86;80.09;5.0;42.538;39.468887;-0.340908;70.4;NaN;;15.207;;0 / 18;1522;2021-10-20 00:23:35:598
-4.3396;-9.1703;0.1386;0.0818;0.0441;9.8063;0.2092;0.2957;-0.1021;-0.0902;0.0982;-0.1171;57.0;-38.94;-1.8;-17.64;39.13;59.86;80.09;5.0;42.538;39.468887;-0.340908;70.4;NaN;;15.207;;0 / 18;1526;2021-10-20 00:23:35:602
-4.3396;-9.1703;0.1386;0.0818;0.0441;9.8063;0.2092;0.2957;-0.1021;-0.0902;0.0982;-0.1171;57.0;-38.94;-1.8;-17.64;39.13;59.86;80.09;5.0;42.538;39.468887;-0.340908;70.4;NaN;;15.207;;0 / 18;1530;2021-10-20 00:23:35:606
-4.3397;-9.134;0.1792;0.0714;0.0551;9.8074;0.2092;0.2957;-0.1021;-0.0902;0.0982;-0.1171;57.0;-39.19;-1.26;-17.7;39.13;59.86;80.09;5.0;42.538;39.468887;-0.340908;70.4;NaN;;15.207;;0 / 18;1536;2021-10-20 00:23:35:612
-4.3397;-9.134;0.1792;0.0714;0.0551;9.8074;0.2092;0.2957;-0.1021;-0.0902;0.0982;-0.1171;57.0;-39.19;-1.26;-17.7;39.13;59.86;80.09;5.0;42.538;39.468887;-0.340908;70.4;NaN;;15.207;;0 / 18;1541;2021-10-20 00:23:35:617
-4.3349;-9.2189;0.1901;0.0847;0.03;9.8065;0.2134;0.2766;-0.173;-0.0762;0.0847;-0.0924;57.0;-39.19;-1.26;-17.7;39.13;59.86;80.09;5.0;42.538;39.468887;-0.340908;70.4;NaN;;15.207;;0 / 18;1546;2021-10-20 00:23:35:622
-4.3349;-9.2189;0.1901;0.0847;0.03;9.8065;0.2134;0.2766;-0.173;-0.0762;0.0847;-0.0924;57.0;-39.19;-1.26;-17.7;39.13;59.86;80.09;5.0;42.538;39.468887;-0.340908;70.4;NaN;;15.207;;0 / 18;1551;2021-10-20 00:23:35:627
-4.3349;-9.2189;0.1901;0.0847;0.03;9.8065;0.2134;0.2766;-0.173;-0.0762;0.0847;-0.0924;57.0;-39.19;-1.26;-17.7;39.13;59.86;80.09;5.0;42.538;39.468887;-0.340908;70.4;NaN;;15.207;;0 / 18;1555;2021-10-20 00:23:35:631
-4.3349;-9.2189;0.1901;0.0847;0.03;9.8065;0.2134;0.2766;-0.173;-0.0762;0.0847;-0.0924;57.0;-39.19;-1.26;-17.7;39.13;59.86;80.09;5.0;42.538;39.468887;-0.340908;70.4;NaN;;15.207;;0 / 18;1561;2021-10-20 00:23:35:637
-4.3276;-9.2123;0.19;0.1497;0.0268;9.8067;0.2134;0.2766;-0.173;-0.0762;0.0847;-0.0924;57.0;-39.19;-1.44;-17.51;40.53;59.18;78.96;5.0;42.538;39.468887;-0.340908;70.4;NaN;;15.207;;0 / 18;1566;2021-10-20 00:23:35:642
-4.3276;-9.2123;0.19;0.1497;0.0268;9.8067;0.2134;0.2766;-0.173;-0.0762;0.0847;-0.0924;57.0;-39.19;-1.44;-17.51;40.53;59.18;78.96;5.0;42.538;39.468887;-0.340908;70.4;NaN;;15.207;;0 / 18;1571;2021-10-20 00:23:35:647
-4.3276;-9.2123;0.19;0.1497;0.0268;9.8067;0.2134;0.2766;-0.173;-0.0762;0.0847;-0.0924;57.0;-39.19;-1.44;-17.51;40.53;59.18;78.96;5.0;42.538;39.468887;-0.340908;70.4;NaN;;15.207;;0 / 18;1576;2021-10-20 00:23:35:652
-4.3276;-9.2123;0.19;0.1497;0.0268;9.8067;0.2134;0.2766;-0.173;-0.0762;0.0847;-0.0924;57.0;-39.19;-1.44;-17.51;40.53;59.18;78.96;5.0;42.538;39.468887;-0.340908;70.4;NaN;;15.207;;0 / 18;1581;2021-10-20 00:23:35:657
-4.3276;-9.2123;0.19;0.1497;0.0268;9.8067;0.2134;0.2766;-0.173;-0.0762;0.0847;-0.0924;57.0;-39.19;-1.44;-17.51;40.53;59.18;78.96;5.0;42.538;39.468887;-0.340908;70.4;NaN;;15.207;;0 / 18;1585;2021-10-20 00:23:35:661
-4.4412;-9.1299;0.0803;-0.0971;0.0901;9.8056;0.1547;0.3089;-0.206;-0.0608;0.0748;-0.0661;57.0;-39.11;-1.44;-17.7;40.53;59.18;78.96;5.0;42.538;39.468887;-0.340908;70.4;NaN;;15.207;;0 / 18;1591;2021-10-20 00:23:35:667
-4.4412;-9.1299;0.0803;-0.0971;0.0901;9.8056;0.1547;0.3089;-0.206;-0.0608;0.0748;-0.0661;57.0;-39.11;-1.44;-17.7;40.53;59.18;78.96;5.0;42.538;39.468887;-0.340908;70.4;NaN;;15.207;;0 / 18;1596;2021-10-20 00:23:35:672
-4.4412;-9.1299;0.0803;-0.0971;0.0901;9.8056;0.1547;0.3089;-0.206;-0.0608;0.0748;-0.0661;57.0;-39.11;-1.44;-17.7;40.53;59.18;78.96;5.0;42.538;39.468887;-0.340908;70.4;NaN;;15.207;;0 / 18;1601;2021-10-20 00:23:35:677
-4.4781;-9.0026;0.2622;-0.062;0.2416;9.8042;0.2967;0.1686;-0.2975;-0.0338;0.0297;0.0074;57.0;-39.11;-1.44;-17.7;40.53;59.18;78.96;5.0;42.538;39.468887;-0.340908;70.4;NaN;;15.207;;0 / 18;1606;2021-10-20 00:23:35:682
-4.4781;-9.0026;0.2622;-0.062;0.2416;9.8042;0.2967;0.1686;-0.2975;-0.0338;0.0297;0.0074;57.0;-39.11;-1.44;-17.7;40.53;59.18;78.96;5.0;42.538;39.468887;-0.340908;70.4;NaN;;15.207;;0 / 18;1611;2021-10-20 00:23:35:687
-4.5122;-9.0133;0.2581;-0.027;-0.0092;9.804;0.3136;0.1672;-0.3324;-0.0338;0.0297;0.0074;57.0;-38.89;-1.2;-17.46;37.11;58.32;81.23;5.0;42.538;39.468887;-0.340908;70.4;NaN;;15.207;;0 / 18;1616;2021-10-20 00:23:35:692
-4.5122;-9.0133;0.2581;-0.027;-0.0092;9.804;0.3136;0.1672;-0.3324;-0.0338;0.0297;0.0074;57.0;-38.89;-1.2;-17.46;37.11;58.32;81.23;5.0;42.538;39.468887;-0.340908;70.4;NaN;;15.207;;0 / 18;1621;2021-10-20 00:23:35:697
-4.5122;-9.0133;0.2581;-0.027;-0.0092;9.804;0.3136;0.1672;-0.3324;-0.0338;0.0297;0.0074;57.0;-38.89;-1.2;-17.46;37.11;58.32;81.23;5.0;42.538;39.468887;-0.340908;70.4;NaN;;15.207;;0 / 18;1626;2021-10-20 00:23:35:702
-4.3302;-9.0549;-0.0248;-0.1181;-0.0717;9.8069;0.3136;0.1672;-0.3324;-0.0338;0.0297;0.0074;57.0;-38.89;-1.2;-17.46;37.11;58.32;81.23;5.0;42.538;39.468887;-0.340908;70.4;NaN;;15.207;;0 / 18;1631;2021-10-20 00:23:35:707
-4.3302;-9.0549;-0.0248;-0.1181;-0.0717;9.8069;0.3136;0.1672;-0.3324;-0.0338;0.0297;0.0074;57.0;-38.81;-1.39;-17.34;37.11;58.32;81.23;5.0;42.538;39.468887;-0.340908;70.4;NaN;;15.207;;0 / 18;1636;2021-10-20 00:23:35:712
-4.3302;-9.0549;-0.0248;-0.1181;-0.0717;9.8069;0.3136;0.1672;-0.3324;-0.0338;0.0297;0.0074;57.0;-38.81;-1.39;-17.34;37.11;58.32;81.23;5.0;42.538;39.468887;-0.340908;70.4;NaN;;15.207;;0 / 18;1641;2021-10-20 00:23:35:717
-4.3707;-9.0373;-0.0395;-0.1764;-0.0094;9.8046;0.3382;0.0733;-0.2261;-0.0338;0.0297;0.0074;57.0;-38.81;-1.39;-17.34;37.11;58.32;81.23;5.0;42.538;39.468887;-0.340908;70.4;NaN;;15.207;;0 / 18;1646;2021-10-20 00:23:35:722
-4.3707;-9.0373;-0.0395;-0.1764;-0.0094;9.8046;0.3382;0.0733;-0.2261;-0.0338;0.0297;0.0074;57.0;-38.81;-1.39;-17.34;37.11;58.32;81.23;5.0;42.538;39.468887;-0.340908;70.4;NaN;;15.207;;0 / 18;1651;2021-10-20 00:23:35:727
-4.3707;-9.0373;-0.0395;-0.1764;-0.0094;9.8046;0.3382;0.0733;-0.2261;-0.0338;0.0297;0.0074;57.0;-38.51;0.19;-17.34;34.81;58.98;82.76;5.0;42.538;39.468887;-0.340908;70.4;NaN;;15.207;;0 / 18;1656;2021-10-20 00:23:35:732
-4.237;-9.0824;0.0682;0.0309;0.0467;9.8064;0.3966;0.0397;-0.259;-0.0338;0.0297;0.0074;57.0;-38.51;0.19;-17.34;34.81;58.98;82.76;5.0;42.538;39.468887;-0.340908;70.4;NaN;;15.207;;0 / 18;1661;2021-10-20 00:23:35:737
-4.237;-9.0824;0.0682;0.0309;0.0467;9.8064;0.3966;0.0397;-0.259;-0.0338;0.0297;0.0074;57.0;-38.51;0.19;-17.34;34.81;58.98;82.76;5.0;42.538;39.468887;-0.340908;70.4;NaN;;15.207;;0 / 18;1666;2021-10-20 00:23:35:742
-4.237;-9.0824;0.0682;0.0309;0.0467;9.8064;0.3966;0.0397;-0.259;-0.0338;0.0297;0.0074;57.0;-38.51;0.19;-17.34;34.81;58.98;82.76;5.0;42.538;39.468887;-0.340908;70.4;NaN;;15.207;;0 / 18;1671;2021-10-20 00:23:35:747
-4.1942;-9.0813;0.1009;0.0635;0.0561;9.8054;0.3966;0.0397;-0.259;-0.0338;0.0297;0.0074;57.0;-38.7;0.0;-17.16;34.81;58.98;82.76;5.0;42.538;39.468887;-0.340908;70.4;NaN;;15.207;;0 / 18;1676;2021-10-20 00:23:35:752
-4.1942;-9.0813;0.1009;0.0635;0.0561;9.8054;0.3966;0.0397;-0.259;-0.0542;-0.0382;0.0969;57.0;-38.7;0.0;-17.16;34.81;58.98;82.76;5.0;42.538;39.468887;-0.340908;70.4;NaN;;15.207;;0 / 18;1680;2021-10-20 00:23:35:756
-4.2259;-9.0868;0.1936;0.0635;0.0561;9.8054;0.3966;0.0397;-0.259;-0.0542;-0.0382;0.0969;57.0;-38.7;0.0;-17.16;34.81;58.98;82.76;5.0;42.538;39.468887;-0.340908;70.4;NaN;;15.207;;0 / 18;1686;2021-10-20 00:23:35:762
-4.2259;-9.0868;0.1936;0.07;0.148;9.8027;0.3436;0.0774;-0.2859;-0.0542;-0.0382;0.0969;57.0;-38.7;0.0;-17.16;34.81;58.98;82.76;5.0;42.538;39.468887;-0.340908;70.4;NaN;;15.207;;0 / 18;1691;2021-10-20 00:23:35:767
-4.2259;-9.0868;0.1936;0.07;0.148;9.8027;0.3436;0.0774;-0.2859;-0.0542;-0.0382;0.0969;57.0;-38.76;-0.19;-17.1;34.77;58.03;83.06;5.0;42.538;39.468887;-0.340908;70.4;NaN;;15.207;;0 / 18;1696;2021-10-20 00:23:35:772
-4.2259;-9.0868;0.1936;0.07;0.148;9.8027;0.3436;0.0774;-0.2859;-0.065;-0.0454;0.1048;55.0;-38.76;-0.19;-17.1;34.77;58.03;83.06;5.0;42.538;39.468887;-0.340908;70.4;NaN;;15.207;;0 / 18;1701;2021-10-20 00:23:35:777
-4.1639;-9.0404;0.0771;0.1028;-0.0219;9.8068;0.3106;0.0326;-0.3773;-0.065;-0.0454;0.1048;55.0;-38.76;-0.19;-17.1;34.77;58.03;83.06;5.0;42.538;39.468887;-0.340908;70.4;NaN;;15.207;;0 / 18;1706;2021-10-20 00:23:35:782
-4.1639;-9.0404;0.0771;0.1028;-0.0219;9.8068;0.3106;0.0326;-0.3773;-0.065;-0.0454;0.1048;55.0;-38.76;-0.19;-17.1;34.77;58.03;83.06;5.0;42.538;39.468887;-0.340908;70.4;NaN;;15.207;;0 / 18;1711;2021-10-20 00:23:35:787
-4.164;-8.9955;0.1223;0.092;0.0084;9.8073;0.3106;0.0326;-0.3773;-0.065;-0.0454;0.1048;55.0;-38.7;-0.3;-17.04;34.77;58.03;83.06;5.0;42.538;39.468887;-0.340908;70.4;NaN;;15.207;;0 / 18;1715;2021-10-20 00:23:35:791
-4.164;-8.9955;0.1223;0.092;0.0084;9.8073;0.3106;0.0326;-0.3773;-0.065;-0.0454;0.1048;55.0;-38.7;-0.3;-17.04;34.77;58.03;83.06;5.0;42.538;39.468887;-0.340908;70.4;NaN;;15.207;;0 / 18;1721;2021-10-20 00:23:35:797
-4.1707;-9.0182;0.1507;0.0939;0.0514;9.8074;0.2404;-0.0056;-0.3819;-0.072;-0.0535;0.1119;55.0;-38.7;-0.3;-17.04;34.77;58.03;83.06;5.0;42.538;39.468887;-0.340908;70.4;NaN;;15.207;;0 / 18;1726;2021-10-20 00:23:35:802
-4.1707;-9.0182;0.1507;0.0939;0.0514;9.8074;0.2404;-0.0056;-0.3819;-0.072;-0.0535;0.1119;55.0;-38.7;-0.3;-17.04;34.77;58.03;83.06;5.0;42.538;39.468887;-0.340908;70.4;NaN;;15.207;;0 / 18;1731;2021-10-20 00:23:35:807
-4.1707;-9.0182;0.1507;0.0939;0.0514;9.8074;0.2404;-0.0056;-0.3819;-0.078;-0.055;0.1187;55.0;-38.81;-0.49;-16.99;35.49;57.47;82.54;5.0;42.538;39.468887;-0.340908;70.4;NaN;;15.207;;0 / 18;1736;2021-10-20 00:23:35:812
-4.1707;-9.0182;0.1507;0.0939;0.0514;9.8074;0.2404;-0.0056;-0.3819;-0.078;-0.055;0.1187;55.0;-38.81;-0.49;-16.99;35.49;57.47;82.54;5.0;42.538;39.468887;-0.340908;70.4;NaN;;15.207;;0 / 18;1741;2021-10-20 00:23:35:817
-4.1804;-9.0132;-0.0307;-0.0017;-0.092;9.805;0.2299;0.0036;-0.3873;-0.078;-0.055;0.1187;55.0;-38.81;-0.49;-16.99;35.49;57.47;82.54;5.0;42.538;39.468887;-0.340908;70.4;NaN;;15.207;;0 / 18;1746;2021-10-20 00:23:35:822
-4.1804;-9.0132;-0.0307;-0.0017;-0.092;9.805;0.2299;0.0036;-0.3873;-0.078;-0.055;0.1187;55.0;-38.81;-0.49;-16.99;35.49;57.47;82.54;5.0;42.538;39.468887;-0.340908;70.4;NaN;;15.207;;0 / 18;1751;2021-10-20 00:23:35:827
-4.1804;-9.0132;-0.0307;-0.0017;-0.092;9.805;0.2299;0.0036;-0.3873;-0.078;-0.055;0.1187;55.0;-39.11;-0.71;-17.04;35.49;57.47;82.54;5.0;42.538;39.468887;-0.340908;70.4;NaN;;15.207;;0 / 18;1755;2021-10-20 00:23:35:831
-4.185;-9.0242;-0.0925;-0.0252;-0.1336;9.8088;0.1954;0.0541;-0.2352;-0.078;-0.055;0.1187;55.0;-39.11;-0.71;-17.04;35.49;57.47;82.54;5.0;42.538;39.468887;-0.340908;70.4;NaN;;15.207;;0 / 18;1761;2021-10-20 00:23:35:837
-4.185;-9.0242;-0.0925;-0.0252;-0.1336;9.8088;0.1954;0.0541;-0.2352;-0.0861;-0.0496;0.1192;55.0;-39.11;-0.71;-17.04;35.49;57.47;82.54;5.0;42.538;39.468887;-0.340908;70.4;NaN;;15.207;;0 / 18;1766;2021-10-20 00:23:35:842
-4.1721;-8.9951;-0.081;-0.0531;-0.1546;9.8046;0.1954;0.0541;-0.2352;-0.0861;-0.0496;0.1192;55.0;-39.11;-0.71;-17.04;35.49;57.47;82.54;5.0;42.538;39.468887;-0.340908;70.4;NaN;;15.207;;0 / 18;1770;2021-10-20 00:23:35:846
-4.1721;-8.9951;-0.081;-0.0531;-0.1546;9.8046;0.1954;0.0541;-0.2352;-0.0821;-0.0487;0.1165;55.0;-39.19;-2.04;-16.91;36.71;58.39;82.02;5.0;42.538;39.468887;-0.340908;70.4;NaN;;15.207;;0 / 18;1776;2021-10-20 00:23:35:852
-4.1721;-8.9951;-0.081;-0.0531;-0.1546;9.8046;0.1954;0.0541;-0.2352;-0.0821;-0.0487;0.1165;55.0;-39.19;-2.04;-16.91;36.71;58.39;82.02;5.0;42.538;39.468887;-0.340908;70.4;NaN;;15.207;;0 / 18;1781;2021-10-20 00:23:35:857
-4.3221;-8.9274;0.0724;0.0214;0.0275;9.8049;0.1997;0.0642;-0.2184;-0.0821;-0.0487;0.1165;55.0;-39.19;-2.04;-16.91;36.71;58.39;82.02;5.0;43.711;39.468887;-0.340908;70.4;NaN;;15.207;;0 / 18;1786;2021-10-20 00:23:35:862
-4.3221;-8.9274;0.0724;0.0214;0.0275;9.8049;0.1997;0.0642;-0.2184;-0.0821;-0.0487;0.1165;55.0;-39.19;-2.04;-16.91;36.71;58.39;82.02;5.0;43.711;39.468887;-0.340908;70.4;NaN;;15.207;;0 / 18;1791;2021-10-20 00:23:35:867
-4.3221;-8.9274;0.0724;0.0214;0.0275;9.8049;0.1997;0.0642;-0.2184;-0.0821;-0.0487;0.1165;55.0;-39.11;-2.04;-16.91;36.71;58.39;82.02;5.0;43.711;39.468887;-0.340908;70.4;NaN;;15.207;;0 / 18;1796;2021-10-20 00:23:35:872
-4.28;-8.9277;0.0913;0.0545;0.0084;9.8077;0.1597;0.0286;-0.1947;-0.0604;-0.0543;0.1152;55.0;-39.11;-2.04;-16.91;36.71;58.39;82.02;5.0;43.711;39.468887;-0.340908;70.4;NaN;;15.207;;0 / 18;1801;2021-10-20 00:23:35:877
-4.28;-8.9277;0.0913;0.0545;0.0084;9.8077;0.1597;0.0286;-0.1947;-0.0604;-0.0543;0.1152;55.0;-39.11;-2.04;-16.91;36.71;58.39;82.02;5.0;43.711;39.468887;-0.340908;70.4;NaN;;15.207;;0 / 18;1805;2021-10-20 00:23:35:881
-4.28;-8.9277;0.0913;0.0545;0.0084;9.8077;0.1597;0.0286;-0.1947;-0.0604;-0.0543;0.1152;55.0;-39.11;-2.04;-16.91;36.71;58.39;82.02;5.0;43.711;39.468887;-0.340908;70.4;NaN;;15.207;;0 / 18;1811;2021-10-20 00:23:35:887
-4.2493;-8.9948;0.0659;0.0647;-0.022;9.8076;0.1597;0.0286;-0.1947;-0.0604;-0.0543;0.1152;55.0;-39.19;-1.99;-16.91;37.54;58.26;81.3;5.0;43.711;39.468887;-0.340908;70.4;NaN;;15.207;;0 / 18;1816;2021-10-20 00:23:35:892
-4.2493;-8.9948;0.0659;0.0647;-0.022;9.8076;0.1597;0.0286;-0.1947;-0.0604;-0.0543;0.1152;55.0;-39.19;-1.99;-16.91;37.54;58.26;81.3;5.0;43.711;39.468887;-0.340908;70.4;NaN;;15.207;;0 / 18;1820;2021-10-20 00:23:35:896
-4.2493;-8.9948;0.0659;0.0647;-0.022;9.8076;0.1597;0.0286;-0.1947;-0.0213;-0.0656;0.1136;55.0;-39.19;-1.99;-16.91;37.54;58.26;81.3;5.0;43.711;39.468887;-0.340908;70.4;NaN;;15.207;;0 / 18;1826;2021-10-20 00:23:35:902
-4.2707;-8.9613;0.0406;-0.0381;-0.0178;9.8073;0.0995;0.0884;-0.1642;-0.0213;-0.0656;0.1136;55.0;-39.19;-1.99;-16.91;37.54;58.26;81.3;5.0;43.711;39.468887;-0.340908;70.4;NaN;;15.207;;0 / 18;1831;2021-10-20 00:23:35:907
-4.2707;-8.9613;0.0406;-0.0381;-0.0178;9.8073;0.0995;0.0884;-0.1642;0.0067;-0.0719;0.1088;55.0;-39.06;-2.04;-16.91;37.54;58.26;81.3;5.0;43.711;39.468887;-0.340908;70.4;NaN;;15.207;;0 / 18;1836;2021-10-20 00:23:35:912
-4.2707;-8.9613;0.0406;-0.0381;-0.0178;9.8073;0.0995;0.0884;-0.1642;0.0067;-0.0719;0.1088;55.0;-39.06;-2.04;-16.91;37.54;58.26;81.3;5.0;43.711;39.468887;-0.340908;70.4;NaN;;15.207;;0 / 18;1841;2021-10-20 00:23:35:917
-4.2707;-8.9613;0.0406;-0.0381;-0.0178;9.8073;0.0995;0.0884;-0.1642;0.0067;-0.0719;0.1088;55.0;-39.06;-2.04;-16.91;37.54;58.26;81.3;5.0;43.711;39.468887;-0.340908;70.4;NaN;;15.207;;0 / 18;1846;2021-10-20 00:23:35:922
-4.3573;-8.9462;0.0801;-0.0155;0.0783;9.8066;0.098;0.0632;-0.1078;0.0067;-0.0719;0.1088;55.0;-39.06;-2.04;-16.91;37.54;58.26;81.3;5.0;43.711;39.468887;-0.340908;70.4;NaN;;15.207;;0 / 18;1851;2021-10-20 00:23:35:927
-4.3573;-8.9462;0.0801;-0.0155;0.0783;9.8066;0.098;0.0632;-0.1078;0.0067;-0.0719;0.1088;55.0;-38.94;-2.76;-16.91;37.42;57.95;81.96;5.0;43.711;39.468887;-0.340908;70.4;NaN;;15.207;;0 / 18;1855;2021-10-20 00:23:35:931
-4.3573;-8.9462;0.0801;-0.0155;0.0783;9.8066;0.098;0.0632;-0.1078;0.0182;-0.0715;0.0987;55.0;-38.94;-2.76;-16.91;37.42;57.95;81.96;5.0;43.711;39.468887;-0.340908;70.4;NaN;;15.207;;0 / 18;1861;2021-10-20 00:23:35:937
-4.4014;-8.9352;-0.0168;1.0E-4;-0.0944;9.8053;0.1801;0.0872;-0.1095;0.0182;-0.0715;0.0987;55.0;-38.94;-2.76;-16.91;37.42;57.95;81.96;5.0;43.711;39.468887;-0.340908;70.4;NaN;;15.207;;0 / 18;1866;2021-10-20 00:23:35:942
-4.4014;-8.9352;-0.0168;1.0E-4;-0.0944;9.8053;0.1801;0.0872;-0.1095;0.0182;-0.0715;0.0987;55.0;-38.94;-2.76;-16.91;37.42;57.95;81.96;5.0;43.711;39.468887;-0.340908;70.4;NaN;;15.207;;0 / 18;1871;2021-10-20 00:23:35:947
-4.3455;-8.9656;-0.1299;-0.0029;-0.2318;9.8036;0.0603;0.1087;0.017;0.0268;-0.0698;0.0872;55.0;-38.94;-2.04;-16.91;37.42;57.95;81.96;5.0;43.711;39.468887;-0.340908;70.4;NaN;;15.207;;0 / 18;1876;2021-10-20 00:23:35:952
-4.3455;-8.9656;-0.1299;-0.0029;-0.2318;9.8036;0.0603;0.1087;0.017;0.0268;-0.0698;0.0872;55.0;-38.94;-2.04;-16.91;37.42;57.95;81.96;5.0;43.711;39.468887;-0.340908;70.4;NaN;;15.207;;0 / 18;1881;2021-10-20 00:23:35:957
-4.3455;-8.9656;-0.1299;-0.0029;-0.2318;9.8036;0.0603;0.1087;0.017;0.0268;-0.0698;0.0872;55.0;-38.94;-2.04;-16.91;37.42;57.95;81.96;5.0;43.711;39.468887;-0.340908;70.4;NaN;;15.207;;0 / 18;1885;2021-10-20 00:23:35:961
-4.3179;-9.022;-0.1616;-0.0089;-0.2607;9.8039;0.0603;0.1087;0.017;0.0268;-0.0698;0.0872;55.0;-38.94;-2.04;-16.91;37.42;57.95;81.96;5.0;43.711;39.468887;-0.340908;70.4;NaN;;15.207;;0 / 18;1891;2021-10-20 00:23:35:967
-4.3179;-9.022;-0.1616;-0.0089;-0.2607;9.8039;0.0603;0.1087;0.017;0.0481;-0.0731;0.0745;55.0;-38.94;-1.91;-16.91;38.38;59.18;80.23;5.0;43.711;39.468887;-0.340908;70.4;NaN;;15.207;;0 / 18;1897;2021-10-20 00:23:35:973
-4.3179;-9.022;-0.1616;-0.0089;-0.2607;9.8039;0.0603;0.1087;0.017;0.0481;-0.0731;0.0745;55.0;-38.94;-1.91;-16.91;38.38;59.18;80.23;5.0;43.711;39.468887;-0.340908;70.4;NaN;;15.207;;0 / 18;1900;2021-10-20 00:23:35:976
-4.1848;-9.127;0.0288;0.0488;-0.0794;9.805;0.0131;0.217;0.0608;0.0481;-0.0731;0.0745;55.0;-38.94;-1.91;-16.91;38.38;59.18;80.23;5.0;43.711;39.468887;-0.340908;70.4;NaN;;15.207;;0 / 18;1906;2021-10-20 00:23:35:982
-4.1848;-9.127;0.0288;0.0488;-0.0794;9.805;0.0131;0.217;0.0608;0.0481;-0.0731;0.0745;55.0;-38.94;-1.91;-16.91;38.38;59.18;80.23;5.0;43.711;39.468887;-0.340908;70.4;NaN;;15.207;;0 / 18;1911;2021-10-20 00:23:35:987
-4.1848;-9.127;0.0288;0.0488;-0.0794;9.805;0.0131;0.217;0.0608;0.0481;-0.0731;0.0745;55.0;-39.11;-1.86;-16.99;38.38;59.18;80.23;5.0;43.711;39.468887;-0.340908;70.4;NaN;;15.207;;0 / 18;1916;2021-10-20 00:23:35:992
-4.1975;-9.077;0.0615;0.0105;-0.0402;9.8036;-0.0362;0.2292;0.0905;0.0481;-0.0731;0.0745;55.0;-39.11;-1.86;-16.99;38.38;59.18;80.23;5.0;43.711;39.468887;-0.340908;70.4;NaN;;15.207;;0 / 18;1921;2021-10-20 00:23:35:997
-4.1975;-9.077;0.0615;0.0105;-0.0402;9.8036;-0.0362;0.2292;0.0905;0.0793;-0.0781;0.0613;55.0;-39.11;-1.86;-16.99;38.38;59.18;80.23;5.0;43.711;39.468887;-0.340908;70.4;NaN;;15.207;;0 / 18;1925;2021-10-20 00:23:36:001
-4.1975;-9.077;0.0615;0.0105;-0.0402;9.8036;-0.0362;0.2292;0.0905;0.0793;-0.0781;0.0613;55.0;-39.11;-1.86;-16.99;38.38;59.18;80.23;5.0;43.711;39.468887;-0.340908;70.4;NaN;;15.207;;0 / 18;1931;2021-10-20 00:23:36:007
-4.1975;-9.077;0.0615;0.0105;-0.0402;9.8036;-0.0362;0.2292;0.0905;0.0793;-0.0781;0.0613;55.0;-39.11;-1.86;-16.99;38.38;59.18;80.23;5.0;43.711;39.468887;-0.340908;70.4;NaN;;15.207;;0 / 18;1936;2021-10-20 00:23:36:012
-4.2244;-9.1022;0.0118;0.0071;-0.0458;9.8053;-0.0362;0.2292;0.0905;0.0793;-0.0781;0.0613;55.0;-38.94;-1.91;-16.91;38.74;59.37;79.84;5.0;43.711;39.468887;-0.340908;70.4;NaN;;15.207;;0 / 18;1941;2021-10-20 00:23:36:017
-4.2244;-9.1022;0.0118;0.0071;-0.0458;9.8053;-0.0362;0.2292;0.0905;0.0793;-0.0781;0.0613;55.0;-38.94;-1.91;-16.91;38.74;59.37;79.84;5.0;43.711;39.468887;-0.340908;70.4;NaN;;15.207;;0 / 18;1946;2021-10-20 00:23:36:022
-4.2244;-9.1022;0.0118;0.0071;-0.0458;9.8053;-0.0362;0.2292;0.0905;0.0793;-0.0781;0.0613;55.0;-38.94;-1.91;-16.91;38.74;59.37;79.84;5.0;43.711;39.468887;-0.340908;70.4;NaN;;15.207;;0 / 18;1951;2021-10-20 00:23:36:027
-4.2269;-9.0977;0.0564;-0.0527;-0.0046;9.806;-0.0162;0.2451;0.1112;0.1029;-0.0745;0.0469;55.0;-38.89;-2.94;-16.86;38.74;59.37;79.84;5.0;43.711;39.468887;-0.340908;70.4;NaN;;15.207;;0 / 18;1956;2021-10-20 00:23:36:032
-4.2269;-9.0977;0.0564;-0.0527;-0.0046;9.806;-0.0162;0.2451;0.1112;0.1029;-0.0745;0.0469;55.0;-38.89;-2.94;-16.86;38.74;59.37;79.84;5.0;43.711;39.468887;-0.340908;70.4;NaN;;15.207;;0 / 18;1961;2021-10-20 00:23:36:037
-4.2269;-9.0977;0.0564;-0.0527;-0.0046;9.806;-0.0162;0.2451;0.1112;0.1029;-0.0745;0.0469;55.0;-38.89;-2.94;-16.86;38.74;59.37;79.84;5.0;43.711;39.468887;-0.340908;70.4;NaN;;15.207;;0 / 18;1965;2021-10-20 00:23:36:041
-4.2269;-9.0977;0.0564;-0.0527;-0.0046;9.806;-0.0162;0.2451;0.1112;0.1029;-0.0745;0.0469;55.0;-38.89;-2.94;-16.86;38.74;59.37;79.84;5.0;43.711;39.468887;-0.340908;70.4;NaN;;15.207;;0 / 18;1971;2021-10-20 00:23:36:047
-4.2216;-9.094;0.0265;-0.0772;-0.0474;9.805;0.0351;0.2383;0.1941;0.1183;-0.0672;0.0298;55.0;-39.0;-3.11;-16.86;38.67;59.87;80.2;5.0;43.711;39.468887;-0.340908;70.4;NaN;;15.207;;0 / 18;1976;2021-10-20 00:23:36:052
-4.2216;-9.094;0.0265;-0.0772;-0.0474;9.805;0.0351;0.2383;0.1941;0.1183;-0.0672;0.0298;55.0;-39.0;-3.11;-16.86;38.67;59.87;80.2;5.0;43.711;39.468887;-0.340908;70.4;NaN;;15.207;;0 / 18;1980;2021-10-20 00:23:36:056
-4.2216;-9.094;0.0265;-0.0772;-0.0474;9.805;0.0351;0.2383;0.1941;0.1183;-0.0672;0.0298;55.0;-39.0;-3.11;-16.86;38.67;59.87;80.2;5.0;43.711;39.468887;-0.340908;70.4;NaN;;15.207;;0 / 18;1986;2021-10-20 00:23:36:062
-4.2216;-9.094;0.0265;-0.0772;-0.0474;9.805;0.0351;0.2383;0.1941;0.1183;-0.0672;0.0298;55.0;-39.0;-3.11;-16.86;38.67;59.87;80.2;5.0;43.711;39.468887;-0.340908;70.4;NaN;;15.207;;0 / 18;1991;2021-10-20 00:23:36:067
-4.3297;-9.0942;0.0398;-0.0738;-0.0121;9.8064;0.0615;0.2802;0.219;0.1191;-0.0583;0.0063;55.0;-38.94;-3.11;-16.56;38.67;59.87;80.2;5.0;43.711;39.468887;-0.340908;70.4;NaN;;15.207;;0 / 18;1996;2021-10-20 00:23:36:072
-4.3297;-9.0942;0.0398;-0.0738;-0.0121;9.8064;0.0615;0.2802;0.219;0.1191;-0.0583;0.0063;55.0;-38.94;-3.11;-16.56;38.67;59.87;80.2;5.0;43.711;39.468887;-0.340908;70.4;NaN;;15.207;;0 / 18;2000;2021-10-20 00:23:36:076
-4.3712;-9.1727;-0.1196;-0.108;-0.1186;9.8066;0.0771;0.32;0.3307;0.1108;-0.0483;-0.0231;55.0;-38.94;-3.11;-16.56;38.67;59.87;80.2;5.0;43.711;39.468887;-0.340908;70.4;NaN;;15.207;;0 / 18;2007;2021-10-20 00:23:36:083
-4.3712;-9.1727;-0.1196;-0.108;-0.1186;9.8066;0.0771;0.32;0.3307;0.1108;-0.0483;-0.0231;55.0;-38.94;-3.11;-16.56;38.67;59.87;80.2;5.0;43.711;39.468887;-0.340908;70.4;NaN;;15.207;;0 / 18;2011;2021-10-20 00:23:36:087
-4.3712;-9.1727;-0.1196;-0.108;-0.1186;9.8066;0.0771;0.32;0.3307;0.1108;-0.0483;-0.0231;55.0;-38.94;-3.11;-16.56;38.67;59.87;80.2;5.0;43.711;39.468887;-0.340908;70.4;NaN;;15.207;;0 / 18;2015;2021-10-20 00:23:36:091
-4.3712;-9.1727;-0.1196;-0.108;-0.1186;9.8066;0.0771;0.32;0.3307;0.1108;-0.0483;-0.0231;55.0;-38.94;-3.11;-16.56;38.67;59.87;80.2;5.0;43.711;39.468887;-0.340908;70.4;NaN;;15.207;;0 / 18;2021;2021-10-20 00:23:36:097
-4.3452;-9.1441;-0.1792;-0.2266;-0.1987;9.8048;0.0771;0.32;0.3307;0.1108;-0.0483;-0.0231;55.0;-38.94;-1.8;-16.39;35.64;61.6;80.85;5.0;43.711;39.468887;-0.340908;70.4;NaN;;15.207;;0 / 18;2026;2021-10-20 00:23:36:102
-4.3452;-9.1441;-0.1792;-0.2266;-0.1987;9.8048;0.0771;0.32;0.3307;0.1108;-0.0483;-0.0231;55.0;-38.94;-1.8;-16.39;35.64;61.6;80.85;5.0;43.711;39.468887;-0.340908;70.4;NaN;;15.207;;0 / 18;2031;2021-10-20 00:23:36:107
-4.3452;-9.1441;-0.1792;-0.2266;-0.1987;9.8048;0.0771;0.32;0.3307;0.1108;-0.0483;-0.0231;55.0;-38.94;-1.8;-16.39;35.64;61.6;80.85;5.0;43.711;39.468887;-0.340908;70.4;NaN;;15.207;;0 / 18;2036;2021-10-20 00:23:36:112
-4.3452;-9.1441;-0.1792;-0.2266;-0.1987;9.8048;0.0771;0.32;0.3307;0.1108;-0.0483;-0.0231;55.0;-38.94;-1.8;-16.39;35.64;61.6;80.85;5.0;43.711;39.468887;-0.340908;70.4;NaN;;15.207;;0 / 18;2040;2021-10-20 00:23:36:116
-4.0532;-9.2553;0.1705;0.0718;0.1367;9.805;0.1255;0.2755;0.4735;0.0851;-0.0307;-0.058;55.0;-39.0;-1.14;-16.2;35.64;61.6;80.85;5.0;43.711;39.468887;-0.340908;70.4;NaN;;15.207;;0 / 18;2046;2021-10-20 00:23:36:122
-4.0532;-9.2553;0.1705;0.0718;0.1367;9.805;0.1255;0.2755;0.4735;0.0851;-0.0307;-0.058;55.0;-39.0;-1.14;-16.2;35.64;61.6;80.85;5.0;43.711;39.468887;-0.340908;70.4;NaN;;15.207;;0 / 18;2050;2021-10-20 00:23:36:126
-3.9292;-9.3102;0.2515;0.1341;0.1114;9.8081;0.1362;0.2603;0.2987;0.0648;-0.0194;-0.0811;55.0;-39.11;-1.2;-16.14;35.64;61.6;80.85;5.0;43.711;39.468887;-0.340908;70.4;NaN;;15.207;;0 / 18;2056;2021-10-20 00:23:36:132
-3.9292;-9.3102;0.2515;0.1341;0.1114;9.8081;0.1362;0.2603;0.2987;0.0648;-0.0194;-0.0811;55.0;-39.11;-1.2;-16.14;35.64;61.6;80.85;5.0;43.711;39.468887;-0.340908;70.4;NaN;;15.207;;0 / 18;2060;2021-10-20 00:23:36:136
-3.9292;-9.3102;0.2515;0.1341;0.1114;9.8081;0.1362;0.2603;0.2987;0.0648;-0.0194;-0.0811;55.0;-39.11;-1.2;-16.14;35.64;61.6;80.85;5.0;43.711;39.468887;-0.340908;70.4;NaN;;15.207;;0 / 18;2066;2021-10-20 00:23:36:142
-3.9292;-9.3102;0.2515;0.1341;0.1114;9.8081;0.1362;0.2603;0.2987;0.0648;-0.0194;-0.0811;55.0;-39.11;-1.2;-16.14;35.64;61.6;80.85;5.0;43.711;39.468887;-0.340908;70.4;NaN;;15.207;;0 / 18;2071;2021-10-20 00:23:36:147
-3.8834;-9.3624;0.2566;0.1732;0.1129;9.8047;0.0744;0.2783;0.268;0.0534;-0.0147;-0.0953;55.0;-39.11;-1.09;-16.14;36.49;60.47;79.96;5.0;43.711;39.468887;-0.340908;70.4;NaN;;15.207;;0 / 18;2076;2021-10-20 00:23:36:152
-3.8834;-9.3624;0.2566;0.1732;0.1129;9.8047;0.0744;0.2783;0.268;0.0534;-0.0147;-0.0953;55.0;-39.11;-1.09;-16.14;36.49;60.47;79.96;5.0;43.711;39.468887;-0.340908;70.4;NaN;;15.207;;0 / 18;2081;2021-10-20 00:23:36:157
-3.8834;-9.3624;0.2566;0.1732;0.1129;9.8047;0.0744;0.2783;0.268;0.0534;-0.0147;-0.0953;55.0;-39.11;-1.09;-16.14;36.49;60.47;79.96;5.0;43.711;39.468887;-0.340908;70.4;NaN;;15.207;;0 / 18;2086;2021-10-20 00:23:36:162
-3.8581;-9.3886;0.0584;0.0489;-0.0519;9.8052;0.0136;0.3881;0.2215;0.0507;-0.015;-0.103;55.0;-39.11;-1.09;-16.14;36.49;60.47;79.96;5.0;35.061;39.468887;-0.340908;70.4;NaN;;15.207;;0 / 18;2091;2021-10-20 00:23:36:167
-3.8581;-9.3886;0.0584;0.0489;-0.0519;9.8052;0.0136;0.3881;0.2215;0.0507;-0.015;-0.103;55.0;-39.11;-1.09;-16.14;36.49;60.47;79.96;5.0;35.061;39.468887;-0.340908;70.4;NaN;;15.207;;0 / 18;2095;2021-10-20 00:23:36:171
-3.8581;-9.3886;0.0584;0.0489;-0.0519;9.8052;0.0136;0.3881;0.2215;0.0507;-0.015;-0.103;55.0;-39.11;-1.09;-16.14;36.49;60.47;79.96;5.0;35.061;39.468887;-0.340908;70.4;NaN;;15.207;;0 / 18;2101;2021-10-20 00:23:36:177
-3.8146;-9.4608;0.001;0.0308;-0.1586;9.8056;-0.0447;0.4003;0.2792;0.055;-0.018;-0.1092;55.0;-39.24;-1.69;-16.09;36.49;60.47;79.96;5.0;35.061;39.468887;-0.340908;70.4;NaN;;15.207;;0 / 18;2107;2021-10-20 00:23:36:183
-3.8146;-9.4608;0.001;0.0308;-0.1586;9.8056;-0.0447;0.4003;0.2792;0.055;-0.018;-0.1092;55.0;-39.24;-1.69;-16.09;36.49;60.47;79.96;5.0;35.061;39.468887;-0.340908;70.4;NaN;;15.207;;0 / 18;2111;2021-10-20 00:23:36:187
-3.8146;-9.4608;0.001;0.0308;-0.1586;9.8056;-0.0447;0.4003;0.2792;0.055;-0.018;-0.1092;55.0;-39.24;-1.69;-16.09;36.49;60.47;79.96;5.0;35.061;39.468887;-0.340908;70.4;NaN;;15.207;;0 / 18;2116;2021-10-20 00:23:36:192
-3.8146;-9.4608;0.001;0.0308;-0.1586;9.8056;-0.0447;0.4003;0.2792;0.055;-0.018;-0.1092;55.0;-39.24;-1.69;-16.09;36.49;60.47;79.96;5.0;35.061;39.468887;-0.340908;70.4;NaN;;15.207;;0 / 18;2121;2021-10-20 00:23:36:197
-3.8336;-9.461;0.0198;0.0798;-0.1165;9.8082;-0.0447;0.4003;0.2792;0.055;-0.018;-0.1092;55.0;-39.41;-1.44;-16.09;38.1;60.73;78.36;5.0;35.061;39.468887;-0.340908;70.4;NaN;;15.207;;0 / 18;2126;2021-10-20 00:23:36:202
-3.8336;-9.461;0.0198;0.0798;-0.1165;9.8082;-0.0447;0.4003;0.2792;0.055;-0.018;-0.1092;55.0;-39.41;-1.44;-16.09;38.1;60.73;78.36;5.0;35.061;39.468887;-0.340908;70.4;NaN;;15.207;;0 / 18;2131;2021-10-20 00:23:36:207
-3.8336;-9.461;0.0198;0.0798;-0.1165;9.8082;-0.0447;0.4003;0.2792;0.055;-0.018;-0.1092;55.0;-39.41;-1.44;-16.09;38.1;60.73;78.36;5.0;35.061;39.468887;-0.340908;70.4;NaN;;15.207;;0 / 18;2135;2021-10-20 00:23:36:211
-3.8387;-9.4776;0.1301;0.0158;-0.001;9.8088;-0.0259;0.4557;0.2343;0.0575;-0.0183;-0.1119;55.0;-39.36;-1.44;-16.2;38.1;60.73;78.36;5.0;35.061;39.468887;-0.340908;70.4;NaN;;15.207;;0 / 18;2141;2021-10-20 00:23:36:217
-3.8387;-9.4776;0.1301;0.0158;-0.001;9.8088;-0.0259;0.4557;0.2343;0.0575;-0.0183;-0.1119;55.0;-39.36;-1.44;-16.2;38.1;60.73;78.36;5.0;35.061;39.468887;-0.340908;70.4;NaN;;15.207;;0 / 18;2145;2021-10-20 00:23:36:221
-3.8387;-9.4776;0.1301;0.0158;-0.001;9.8088;-0.0259;0.4557;0.2343;0.0575;-0.0183;-0.1119;55.0;-39.36;-1.44;-16.2;38.1;60.73;78.36;5.0;35.061;39.468887;-0.340908;70.4;NaN;;15.207;;0 / 18;2151;2021-10-20 00:23:36:227
-3.9499;-9.4357;0.102;-0.0706;0.03;9.8036;-0.0382;0.4484;0.2042;0.0538;-0.012;-0.1118;55.0;-39.49;-1.14;-16.39;38.1;60.73;78.36;5.0;35.061;39.468887;-0.340908;70.4;NaN;;15.207;;0 / 18;2156;2021-10-20 00:23:36:232
-3.9499;-9.4357;0.102;-0.0706;0.03;9.8036;-0.0382;0.4484;0.2042;0.0538;-0.012;-0.1118;55.0;-39.49;-1.14;-16.39;38.1;60.73;78.36;5.0;35.061;39.468887;-0.340908;70.4;NaN;;15.207;;0 / 18;2161;2021-10-20 00:23:36:237
-3.9499;-9.4357;0.102;-0.0706;0.03;9.8036;-0.0382;0.4484;0.2042;0.0538;-0.012;-0.1118;55.0;-39.49;-1.14;-16.39;38.1;60.73;78.36;5.0;35.061;39.468887;-0.340908;70.4;NaN;;15.207;;0 / 18;2166;2021-10-20 00:23:36:242
-3.9429;-9.3914;0.1274;-0.0673;0.0573;9.8058;0.0442;0.4181;0.1976;0.04;0.0019;-0.1082;55.0;-39.49;-1.14;-16.39;38.1;60.73;78.36;5.0;35.061;39.468887;-0.340908;70.4;NaN;;15.207;;0 / 18;2171;2021-10-20 00:23:36:247
-3.9429;-9.3914;0.1274;-0.0673;0.0573;9.8058;0.0442;0.4181;0.1976;0.04;0.0019;-0.1082;55.0;-39.71;-1.01;-16.39;36.45;60.71;79.42;5.0;35.061;39.468887;-0.340908;70.4;NaN;;15.207;;0 / 18;2176;2021-10-20 00:23:36:252
-3.9429;-9.3914;0.1274;-0.0673;0.0573;9.8058;0.0442;0.4181;0.1976;0.04;0.0019;-0.1082;55.0;-39.71;-1.01;-16.39;36.45;60.71;79.42;5.0;35.061;39.468887;-0.340908;70.4;NaN;;15.207;;0 / 18;2181;2021-10-20 00:23:36:257
-3.9429;-9.3914;0.1274;-0.0673;0.0573;9.8058;0.0442;0.4181;0.1976;0.04;0.0019;-0.1082;55.0;-39.71;-1.01;-16.39;36.45;60.71;79.42;5.0;35.061;39.468887;-0.340908;70.4;NaN;;15.207;;0 / 18;2186;2021-10-20 00:23:36:262
-3.9444;-9.4254;0.0546;-0.104;0.0603;9.8042;0.1203;0.3436;0.1579;0.039;0.0095;-0.0971;55.0;-39.71;-1.01;-16.39;36.45;60.71;79.42;5.0;35.061;39.468887;-0.340908;70.4;NaN;;15.207;;0 / 18;2191;2021-10-20 00:23:36:267
-3.9444;-9.4254;0.0546;-0.104;0.0603;9.8042;0.1203;0.3436;0.1579;0.039;0.0095;-0.0971;55.0;-39.71;-1.01;-16.39;36.45;60.71;79.42;5.0;35.061;39.468887;-0.340908;70.4;NaN;;15.207;;0 / 18;2196;2021-10-20 00:23:36:272
-3.9444;-9.4254;0.0546;-0.104;0.0603;9.8042;0.1203;0.3436;0.1579;0.039;0.0095;-0.0971;55.0;-39.71;-1.01;-16.39;36.45;60.71;79.42;5.0;35.061;39.468887;-0.340908;70.4;NaN;;15.207;;0 / 18;2201;2021-10-20 00:23:36:277
-3.8674;-9.4029;0.055;-0.059;0.0325;9.8066;0.1086;0.3411;0.1819;0.0452;0.0132;-0.0879;55.0;-39.54;-0.9;-16.39;36.45;60.71;79.42;5.0;35.061;39.468887;-0.340908;70.4;NaN;;15.207;;0 / 18;2206;2021-10-20 00:23:36:282
-3.8674;-9.4029;0.055;-0.059;0.0325;9.8066;0.1086;0.3411;0.1819;0.0452;0.0132;-0.0879;55.0;-39.54;-0.9;-16.39;36.45;60.71;79.42;5.0;35.061;39.468887;-0.340908;70.4;NaN;;15.207;;0 / 18;2211;2021-10-20 00:23:36:287
-3.8674;-9.4029;0.055;-0.059;0.0325;9.8066;0.1086;0.3411;0.1819;0.0452;0.0132;-0.0879;55.0;-39.54;-0.9;-16.39;36.45;60.71;79.42;5.0;35.061;39.468887;-0.340908;70.4;NaN;;15.207;;0 / 18;2216;2021-10-20 00:23:36:292
-3.8674;-9.4029;0.055;-0.059;0.0325;9.8066;0.1086;0.3411;0.1819;0.0452;0.0132;-0.0879;55.0;-39.54;-0.9;-16.39;36.45;60.71;79.42;5.0;35.061;39.468887;-0.340908;70.4;NaN;;15.207;;0 / 18;2221;2021-10-20 00:23:36:297
-3.955;-9.3533;0.0779;-0.1073;0.0746;9.8053;0.2025;0.254;0.1259;0.0494;0.0106;-0.0793;55.0;-39.54;-1.74;-16.39;36.01;60.76;80.22;5.0;35.061;39.468887;-0.340908;70.4;NaN;;15.207;;0 / 18;2226;2021-10-20 00:23:36:302
-3.955;-9.3533;0.0779;-0.1073;0.0746;9.8053;0.2025;0.254;0.1259;0.0494;0.0106;-0.0793;55.0;-39.54;-1.74;-16.39;36.01;60.76;80.22;5.0;35.061;39.468887;-0.340908;70.4;NaN;;15.207;;0 / 18;2231;2021-10-20 00:23:36:307
-3.955;-9.3533;0.0779;-0.1073;0.0746;9.8053;0.2025;0.254;0.1259;0.0494;0.0106;-0.0793;55.0;-39.54;-1.74;-16.39;36.01;60.76;80.22;5.0;35.061;39.468887;-0.340908;70.4;NaN;;15.207;;0 / 18;2235;2021-10-20 00:23:36:311
-3.9705;-9.2616;0.1072;-0.0567;0.0992;9.8057;0.2025;0.254;0.1259;0.0494;0.0106;-0.0793;55.0;-39.41;-1.99;-16.2;36.01;60.76;80.22;5.0;35.061;39.468887;-0.340908;70.4;NaN;;15.207;;0 / 18;2241;2021-10-20 00:23:36:317
-3.9705;-9.2616;0.1072;-0.0567;0.0992;9.8057;0.2025;0.254;0.1259;0.0494;0.0106;-0.0793;55.0;-39.41;-1.99;-16.2;36.01;60.76;80.22;5.0;35.061;39.468887;-0.340908;70.4;NaN;;15.207;;0 / 18;2246;2021-10-20 00:23:36:322
-3.9705;-9.2616;0.1072;-0.0567;0.0992;9.8057;0.2025;0.254;0.1259;0.0494;0.0106;-0.0793;55.0;-39.41;-1.99;-16.2;36.01;60.76;80.22;5.0;35.061;39.468887;-0.340908;70.4;NaN;;15.207;;0 / 18;2250;2021-10-20 00:23:36:326
-3.9469;-9.2986;0.1211;-0.0034;0.0668;9.8085;0.1992;0.1962;0.0685;0.0473;0.0039;-0.0707;55.0;-39.6;-1.44;-16.26;36.01;60.76;80.22;5.0;35.061;39.468887;-0.340908;70.4;NaN;;15.207;;0 / 30;2256;2021-10-20 00:23:36:332
-3.9469;-9.2986;0.1211;-0.0034;0.0668;9.8085;0.1992;0.1962;0.0685;0.0473;0.0039;-0.0707;55.0;-39.6;-1.44;-16.26;36.01;60.76;80.22;5.0;35.061;39.468887;-0.340908;70.4;NaN;;15.207;;0 / 30;2261;2021-10-20 00:23:36:337
-3.9469;-9.2986;0.1211;-0.0034;0.0668;9.8085;0.1992;0.1962;0.0685;0.0473;0.0039;-0.0707;55.0;-39.6;-1.44;-16.26;36.01;60.76;80.22;5.0;35.061;39.468887;-0.340908;70.4;NaN;;15.207;;0 / 30;2266;2021-10-20 00:23:36:342
-3.9469;-9.2986;0.1211;-0.0034;0.0668;9.8085;0.1992;0.1962;0.0685;0.0473;0.0039;-0.0707;55.0;-39.6;-1.44;-16.26;36.01;60.76;80.22;5.0;35.061;39.468887;-0.340908;70.4;NaN;;15.207;;0 / 30;2270;2021-10-20 00:23:36:346
-3.9202;-9.2831;0.1747;0.0524;0.1321;9.8071;0.13;0.1874;-0.018;0.0473;0.0039;-0.0707;55.0;-39.41;-1.44;-16.14;35.93;59.95;80.63;5.0;35.061;39.468887;-0.340908;70.4;NaN;;15.207;;0 / 30;2276;2021-10-20 00:23:36:352
-3.9202;-9.2831;0.1747;0.0524;0.1321;9.8071;0.13;0.1874;-0.018;0.0473;0.0039;-0.0707;55.0;-39.41;-1.44;-16.14;35.93;59.95;80.63;5.0;35.061;39.468887;-0.340908;70.4;NaN;;15.207;;0 / 30;2281;2021-10-20 00:23:36:357
-3.9202;-9.2831;0.1747;0.0524;0.1321;9.8071;0.13;0.1874;-0.018;0.0473;0.0039;-0.0707;55.0;-39.41;-1.44;-16.14;35.93;59.95;80.63;5.0;35.061;39.468887;-0.340908;70.4;NaN;;15.207;;0 / 30;2286;2021-10-20 00:23:36:362
-3.9204;-9.2893;0.1241;0.0564;0.024;9.8053;0.1202;0.2426;-0.0509;0.0473;0.0039;-0.0707;55.0;-39.41;-1.44;-16.14;35.93;59.95;80.63;5.0;35.061;39.468887;-0.340908;70.4;NaN;;15.207;;0 / 30;2291;2021-10-20 00:23:36:367
-3.9204;-9.2893;0.1241;0.0564;0.024;9.8053;0.1202;0.2426;-0.0509;0.0473;0.0039;-0.0707;55.0;-39.41;-1.44;-16.14;35.93;59.95;80.63;5.0;35.061;39.468887;-0.340908;70.4;NaN;;15.207;;0 / 30;2295;2021-10-20 00:23:36:371
-3.9204;-9.2893;0.1241;0.0564;0.024;9.8053;0.1202;0.2426;-0.0509;0.0473;0.0039;-0.0707;55.0;-39.41;-1.44;-16.14;35.93;59.95;80.63;5.0;35.061;39.468887;-0.340908;70.4;NaN;;15.207;;0 / 30;2301;2021-10-20 00:23:36:377
-3.8926;-9.3009;0.1361;0.0806;0.0186;9.8055;0.0888;0.2556;-0.1123;0.0473;0.0037;-0.0707;55.0;-39.36;-1.31;-15.96;35.93;59.95;80.63;5.0;35.061;39.468887;-0.340908;70.4;NaN;;15.207;;0 / 30;2307;2021-10-20 00:23:36:383
-3.8926;-9.3009;0.1361;0.0806;0.0186;9.8055;0.0888;0.2556;-0.1123;0.0473;0.0037;-0.0707;55.0;-39.36;-1.31;-15.96;35.93;59.95;80.63;5.0;35.061;39.468887;-0.340908;70.4;NaN;;15.207;;0 / 30;2311;2021-10-20 00:23:36:387
-3.8926;-9.3009;0.1361;0.0806;0.0186;9.8055;0.0888;0.2556;-0.1123;0.0473;0.0037;-0.0707;55.0;-39.36;-1.31;-15.96;35.93;59.95;80.63;5.0;35.061;39.468887;-0.340908;70.4;NaN;;15.207;;0 / 30;2316;2021-10-20 00:23:36:392
-3.8926;-9.3009;0.1361;0.0806;0.0186;9.8055;0.0888;0.2556;-0.1123;0.0473;0.0037;-0.0707;55.0;-39.36;-1.31;-15.96;35.93;59.95;80.63;5.0;35.061;39.468887;-0.340908;70.4;NaN;;15.207;;0 / 30;2320;2021-10-20 00:23:36:396
-3.8764;-9.3239;0.1506;0.0528;-0.0132;9.807;0.0903;0.2556;-0.1111;0.0473;0.0037;-0.0707;55.0;-39.6;-2.29;-15.9;36.6;59.58;80.0;5.0;35.061;39.468887;-0.340908;70.4;NaN;;15.207;;0 / 30;2326;2021-10-20 00:23:36:402
-3.8764;-9.3239;0.1506;0.0528;-0.0132;9.807;0.0903;0.2556;-0.1111;0.0473;0.0037;-0.0707;55.0;-39.6;-2.29;-15.9;36.6;59.58;80.0;5.0;35.061;39.468887;-0.340908;70.4;NaN;;15.207;;0 / 30;2331;2021-10-20 00:23:36:407
-3.8764;-9.3239;0.1506;0.0528;-0.0132;9.807;0.0903;0.2556;-0.1111;0.0473;0.0037;-0.0707;55.0;-39.6;-2.29;-15.9;36.6;59.58;80.0;5.0;35.061;39.468887;-0.340908;70.4;NaN;;15.207;;0 / 30;2336;2021-10-20 00:23:36:412
-3.914;-9.3053;0.0784;0.0419;-0.0027;9.8081;0.0485;0.2858;-0.1343;0.0338;-0.01;-0.032;55.0;-39.49;-2.16;-15.9;36.6;59.58;80.0;5.0;35.061;39.468887;-0.340908;70.4;NaN;;15.207;;0 / 30;2341;2021-10-20 00:23:36:417
-3.914;-9.3053;0.0784;0.0419;-0.0027;9.8081;0.0485;0.2858;-0.1343;0.0338;-0.01;-0.032;55.0;-39.49;-2.16;-15.9;36.6;59.58;80.0;5.0;35.061;39.468887;-0.340908;70.4;NaN;;15.207;;0 / 30;2346;2021-10-20 00:23:36:422
-3.914;-9.3053;0.0784;0.0419;-0.0027;9.8081;0.0485;0.2858;-0.1343;0.0338;-0.01;-0.032;55.0;-39.49;-2.16;-15.9;36.6;59.58;80.0;5.0;35.061;39.468887;-0.340908;70.4;NaN;;15.207;;0 / 30;2350;2021-10-20 00:23:36:426
-3.8714;-9.2709;0.1073;0.0173;0.0224;9.8058;0.0441;0.2517;-0.1084;0.0378;-0.017;-0.0161;55.0;-39.41;-0.84;-15.84;36.6;59.58;80.0;5.0;35.061;39.468887;-0.340908;70.4;NaN;;15.207;;0 / 30;2356;2021-10-20 00:23:36:432
-3.8714;-9.2709;0.1073;0.0173;0.0224;9.8058;0.0441;0.2517;-0.1084;0.0378;-0.017;-0.0161;55.0;-39.41;-0.84;-15.84;36.6;59.58;80.0;5.0;35.061;39.468887;-0.340908;70.4;NaN;;15.207;;0 / 30;2360;2021-10-20 00:23:36:436
-3.8714;-9.2709;0.1073;0.0173;0.0224;9.8058;0.0441;0.2517;-0.1084;0.0378;-0.017;-0.0161;55.0;-39.41;-0.84;-15.84;36.6;59.58;80.0;5.0;35.061;39.468887;-0.340908;70.4;NaN;;15.207;;0 / 30;2366;2021-10-20 00:23:36:442
-3.8714;-9.2709;0.1073;0.0173;0.0224;9.8058;0.0441;0.2517;-0.1084;0.0378;-0.017;-0.0161;55.0;-39.41;-0.84;-15.84;36.6;59.58;80.0;5.0;35.061;39.468887;-0.340908;70.4;NaN;;15.207;;0 / 30;2371;2021-10-20 00:23:36:447
-4.0893;-9.1563;0.1452;-0.1441;0.1484;9.8031;0.1757;0.1439;-0.1449;0.0407;-0.0258;0.0034;54.0;-39.36;-2.21;-15.66;34.7;59.37;82.34;5.0;35.061;39.468887;-0.340908;70.4;NaN;;15.207;;0 / 30;2376;2021-10-20 00:23:36:452
-4.0893;-9.1563;0.1452;-0.1441;0.1484;9.8031;0.1757;0.1439;-0.1449;0.0407;-0.0258;0.0034;54.0;-39.36;-2.21;-15.66;34.7;59.37;82.34;5.0;35.061;39.468887;-0.340908;70.4;NaN;;15.207;;0 / 30;2381;2021-10-20 00:23:36:457
-4.0893;-9.1563;0.1452;-0.1441;0.1484;9.8031;0.1757;0.1439;-0.1449;0.0407;-0.0258;0.0034;54.0;-39.36;-2.21;-15.66;34.7;59.37;82.34;5.0;35.061;39.468887;-0.340908;70.4;NaN;;15.207;;0 / 30;2386;2021-10-20 00:23:36:462
-4.0278;-9.1328;0.0873;0.0757;-0.0619;9.8062;0.2716;0.1245;-0.1819;0.0465;-0.0368;0.025;54.0;-39.36;-2.21;-15.66;34.7;59.37;82.34;5.0;35.061;39.468887;-0.340908;70.4;NaN;;15.207;;0 / 30;2391;2021-10-20 00:23:36:467
-4.0278;-9.1328;0.0873;0.0757;-0.0619;9.8062;0.2716;0.1245;-0.1819;0.0465;-0.0368;0.025;54.0;-39.54;-2.04;-15.6;34.7;59.37;82.34;5.0;35.061;39.468887;-0.340908;70.4;NaN;;15.207;;0 / 30;2396;2021-10-20 00:23:36:472
-4.0278;-9.1328;0.0873;0.0757;-0.0619;9.8062;0.2716;0.1245;-0.1819;0.0465;-0.0368;0.025;54.0;-39.54;-2.04;-15.6;34.7;59.37;82.34;5.0;35.061;39.468887;-0.340908;70.4;NaN;;15.207;;0 / 30;2400;2021-10-20 00:23:36:476
-3.9595;-9.2527;-0.0362;0.0847;-0.1468;9.8069;0.0974;0.1946;-0.0729;0.0623;-0.0455;0.0414;54.0;-39.54;-2.04;-15.6;34.7;59.37;82.34;5.0;31.59;39.468887;-0.340908;70.4;NaN;;15.207;;0 / 30;2406;2021-10-20 00:23:36:482
-3.9595;-9.2527;-0.0362;0.0847;-0.1468;9.8069;0.0974;0.1946;-0.0729;0.0623;-0.0455;0.0414;54.0;-39.54;-2.04;-15.6;34.7;59.37;82.34;5.0;31.59;39.468887;-0.340908;70.4;NaN;;15.207;;0 / 30;2411;2021-10-20 00:23:36:487
-3.9595;-9.2527;-0.0362;0.0847;-0.1468;9.8069;0.0974;0.1946;-0.0729;0.0623;-0.0455;0.0414;54.0;-39.54;-2.04;-15.6;34.7;59.37;82.34;5.0;31.59;39.468887;-0.340908;70.4;NaN;;15.207;;0 / 30;2415;2021-10-20 00:23:36:491
-3.9595;-9.2527;-0.0362;0.0847;-0.1468;9.8069;0.0974;0.1946;-0.0729;0.0623;-0.0455;0.0414;54.0;-39.54;-2.04;-15.6;34.7;59.37;82.34;5.0;31.59;39.468887;-0.340908;70.4;NaN;;15.207;;0 / 30;2421;2021-10-20 00:23:36:497
-3.9596;-9.2263;-0.0293;0.1354;-0.1441;9.803;0.0974;0.1946;-0.0729;0.0623;-0.0455;0.0414;54.0;-39.36;-2.16;-15.36;35.69;59.59;80.11;5.0;31.59;39.468887;-0.340908;70.4;NaN;;15.207;;0 / 30;2425;2021-10-20 00:23:36:501
-3.9596;-9.2263;-0.0293;0.1354;-0.1441;9.803;0.0974;0.1946;-0.0729;0.0623;-0.0455;0.0414;54.0;-39.36;-2.16;-15.36;35.69;59.59;80.11;5.0;31.59;39.468887;-0.340908;70.4;NaN;;15.207;;0 / 30;2431;2021-10-20 00:23:36:507
-3.9596;-9.2263;-0.0293;0.1354;-0.1441;9.803;0.0974;0.1946;-0.0729;0.0623;-0.0455;0.0414;54.0;-39.36;-2.16;-15.36;35.69;59.59;80.11;5.0;31.59;39.468887;-0.340908;70.4;NaN;;15.207;;0 / 30;2436;2021-10-20 00:23:36:512
-3.9596;-9.2263;-0.0293;0.1354;-0.1441;9.803;0.0974;0.1946;-0.0729;0.0623;-0.0455;0.0414;54.0;-39.36;-2.16;-15.36;35.69;59.59;80.11;5.0;31.59;39.468887;-0.340908;70.4;NaN;;15.207;;0 / 30;2441;2021-10-20 00:23:36:517
-3.8676;-9.2174;0.1239;-0.0885;0.0807;9.8076;0.0723;0.2088;-0.0988;0.0844;-0.0564;0.0517;54.0;-39.54;-2.16;-15.3;35.69;59.59;80.11;5.0;31.59;39.468887;-0.340908;70.4;NaN;;15.207;;0 / 30;2445;2021-10-20 00:23:36:521
-3.8676;-9.2174;0.1239;-0.0885;0.0807;9.8076;0.0723;0.2088;-0.0988;0.0844;-0.0564;0.0517;54.0;-39.54;-2.16;-15.3;35.69;59.59;80.11;5.0;31.59;39.468887;-0.340908;70.4;NaN;;15.207;;0 / 30;2451;2021-10-20 00:23:36:527
-3.8454;-9.2112;0.1842;0.0126;0.109;9.8057;0.1683;0.1272;-0.111;0.109;-0.0705;0.059;54.0;-39.84;-2.46;-15.54;35.69;59.59;80.11;5.0;31.59;39.468887;-0.340908;70.4;NaN;;15.207;;0 / 30;2456;2021-10-20 00:23:36:532
-3.8454;-9.2112;0.1842;0.0126;0.109;9.8057;0.1683;0.1272;-0.111;0.109;-0.0705;0.059;54.0;-39.84;-2.46;-15.54;35.69;59.59;80.11;5.0;31.59;39.468887;-0.340908;70.4;NaN;;15.207;;0 / 30;2461;2021-10-20 00:23:36:537
-3.8454;-9.2112;0.1842;0.0126;0.109;9.8057;0.1683;0.1272;-0.111;0.109;-0.0705;0.059;54.0;-39.84;-2.46;-15.54;35.69;59.59;80.11;5.0;31.59;39.468887;-0.340908;70.4;NaN;;15.207;;0 / 30;2466;2021-10-20 00:23:36:542
-3.8454;-9.2112;0.1842;0.0126;0.109;9.8057;0.1683;0.1272;-0.111;0.109;-0.0705;0.059;54.0;-39.84;-2.46;-15.54;35.69;59.59;80.11;5.0;31.59;39.468887;-0.340908;70.4;NaN;;15.207;;0 / 30;2470;2021-10-20 00:23:36:546
-3.7703;-9.3001;0.1954;0.0528;0.1031;9.8056;0.0919;0.1779;-0.1818;0.1309;-0.0833;0.0644;54.0;-39.66;-2.46;-15.49;35.14;58.92;80.31;5.0;31.59;39.468887;-0.340908;70.4;NaN;;15.207;;0 / 30;2476;2021-10-20 00:23:36:552
-3.7703;-9.3001;0.1954;0.0528;0.1031;9.8056;0.0919;0.1779;-0.1818;0.1309;-0.0833;0.0644;54.0;-39.66;-2.46;-15.49;35.14;58.92;80.31;5.0;31.59;39.468887;-0.340908;70.4;NaN;;15.207;;0 / 30;2481;2021-10-20 00:23:36:557
-3.7703;-9.3001;0.1954;0.0528;0.1031;9.8056;0.0919;0.1779;-0.1818;0.1309;-0.0833;0.0644;54.0;-39.66;-2.46;-15.49;35.14;58.92;80.31;5.0;31.59;39.468887;-0.340908;70.4;NaN;;15.207;;0 / 30;2486;2021-10-20 00:23:36:562
-3.7008;-9.3512;0.0961;0.0445;-0.0078;9.8067;0.0536;0.228;-0.1904;0.1393;-0.089;0.0674;54.0;-39.66;-2.46;-15.49;35.14;58.92;80.31;5.0;31.59;39.468887;-0.340908;70.4;NaN;;15.207;;0 / 30;2491;2021-10-20 00:23:36:567
-3.7008;-9.3512;0.0961;0.0445;-0.0078;9.8067;0.0536;0.228;-0.1904;0.1393;-0.089;0.0674;54.0;-39.66;-2.46;-15.49;35.14;58.92;80.31;5.0;31.59;39.468887;-0.340908;70.4;NaN;;15.207;;0 / 30;2496;2021-10-20 00:23:36:572
-3.7008;-9.3512;0.0961;0.0445;-0.0078;9.8067;0.0536;0.228;-0.1904;0.1393;-0.089;0.0674;54.0;-39.66;-2.46;-15.49;35.14;58.92;80.31;5.0;31.59;39.468887;-0.340908;70.4;NaN;;15.207;;0 / 30;2501;2021-10-20 00:23:36:577
-3.6543;-9.3827;0.0326;0.076;-0.0836;9.8082;0.0536;0.228;-0.1904;0.1393;-0.089;0.0674;54.0;-39.54;-1.8;-15.36;35.14;58.92;80.31;5.0;31.59;39.468887;-0.340908;70.4;NaN;;15.207;;0 / 30;2506;2021-10-20 00:23:36:582
-3.6543;-9.3827;0.0326;0.076;-0.0836;9.8082;0.0536;0.228;-0.1904;0.1393;-0.089;0.0674;54.0;-39.54;-1.8;-15.36;35.14;58.92;80.31;5.0;31.59;39.468887;-0.340908;70.4;NaN;;15.207;;0 / 30;2510;2021-10-20 00:23:36:586
-3.6543;-9.3827;0.0326;0.076;-0.0836;9.8082;0.0536;0.228;-0.1904;0.1393;-0.089;0.0674;54.0;-39.54;-1.8;-15.36;35.14;58.92;80.31;5.0;31.59;39.468887;-0.340908;70.4;NaN;;15.207;;0 / 30;2516;2021-10-20 00:23:36:592
-3.6066;-9.4114;-0.0736;0.0535;-0.2038;9.8026;-0.0288;0.259;-0.145;0.1425;-0.0903;0.069;54.0;-39.6;-1.86;-15.49;36.92;59.7;78.44;5.0;31.59;39.468887;-0.340908;70.4;NaN;;15.207;;0 / 30;2521;2021-10-20 00:23:36:597
-3.6066;-9.4114;-0.0736;0.0535;-0.2038;9.8026;-0.0288;0.259;-0.145;0.1425;-0.0903;0.069;54.0;-39.6;-1.86;-15.49;36.92;59.7;78.44;5.0;31.59;39.468887;-0.340908;70.4;NaN;;15.207;;0 / 30;2526;2021-10-20 00:23:36:602
-3.6066;-9.4114;-0.0736;0.0535;-0.2038;9.8026;-0.0288;0.259;-0.145;0.1425;-0.0903;0.069;54.0;-39.6;-1.86;-15.49;36.92;59.7;78.44;5.0;31.59;39.468887;-0.340908;70.4;NaN;;15.207;;0 / 30;2530;2021-10-20 00:23:36:606
-3.7304;-9.4052;-0.0066;-0.1825;-0.0406;9.8051;-0.0435;0.3455;-0.0257;0.1426;-0.0888;0.0639;54.0;-39.54;-1.91;-15.84;36.92;59.7;78.44;5.0;31.59;39.468887;-0.340908;70.4;NaN;;15.207;;0 / 30;2536;2021-10-20 00:23:36:612
-3.7304;-9.4052;-0.0066;-0.1825;-0.0406;9.8051;-0.0435;0.3455;-0.0257;0.1426;-0.0888;0.0639;54.0;-39.54;-1.91;-15.84;36.92;59.7;78.44;5.0;31.59;39.468887;-0.340908;70.4;NaN;;15.207;;0 / 30;2541;2021-10-20 00:23:36:617
-3.7304;-9.4052;-0.0066;-0.1825;-0.0406;9.8051;-0.0435;0.3455;-0.0257;0.1426;-0.0888;0.0639;54.0;-39.54;-1.91;-15.84;36.92;59.7;78.44;5.0;31.59;39.468887;-0.340908;70.4;NaN;;15.207;;0 / 30;2545;2021-10-20 00:23:36:621
-3.7304;-9.4052;-0.0066;-0.1825;-0.0406;9.8051;-0.0435;0.3455;-0.0257;0.1426;-0.0888;0.0639;54.0;-39.54;-1.91;-15.84;36.92;59.7;78.44;5.0;31.59;39.468887;-0.340908;70.4;NaN;;15.207;;0 / 30;2551;2021-10-20 00:23:36:627
-3.8822;-9.3604;-0.0771;-0.2752;-0.0109;9.8031;0.1143;0.2653;0.1104;0.1305;-0.0797;0.0524;54.0;-39.54;-2.04;-16.09;36.92;59.7;78.44;5.0;31.59;39.468887;-0.340908;70.4;NaN;;15.207;;0 / 30;2556;2021-10-20 00:23:36:632
-3.8822;-9.3604;-0.0771;-0.2752;-0.0109;9.8031;0.1143;0.2653;0.1104;0.1305;-0.0797;0.0524;54.0;-39.54;-2.04;-16.09;36.92;59.7;78.44;5.0;31.59;39.468887;-0.340908;70.4;NaN;;15.207;;0 / 30;2561;2021-10-20 00:23:36:637
-3.8822;-9.3604;-0.0771;-0.2752;-0.0109;9.8031;0.1143;0.2653;0.1104;0.1305;-0.0797;0.0524;54.0;-39.54;-2.04;-16.09;36.92;59.7;78.44;5.0;31.59;39.468887;-0.340908;70.4;NaN;;15.207;;0 / 30;2566;2021-10-20 00:23:36:642
-4.0034;-9.2689;0.0204;-0.4251;0.1603;9.7972;0.2323;0.1884;0.0749;0.1166;-0.0694;0.0439;54.0;-39.54;-2.04;-16.09;36.92;59.7;78.44;5.0;31.59;39.468887;-0.340908;70.4;NaN;;15.207;;0 / 30;2570;2021-10-20 00:23:36:646
-4.0034;-9.2689;0.0204;-0.4251;0.1603;9.7972;0.2323;0.1884;0.0749;0.1166;-0.0694;0.0439;54.0;-39.71;-2.51;-16.2;32.87;60.35;83.6;5.0;31.59;39.468887;-0.340908;70.4;NaN;;15.207;;0 / 30;2576;2021-10-20 00:23:36:652
-4.0034;-9.2689;0.0204;-0.4251;0.1603;9.7972;0.2323;0.1884;0.0749;0.1166;-0.0694;0.0439;54.0;-39.71;-2.51;-16.2;32.87;60.35;83.6;5.0;31.59;39.468887;-0.340908;70.4;NaN;;15.207;;0 / 30;2581;2021-10-20 00:23:36:657
-4.0425;-9.1845;0.0877;0.1034;0.0121;9.8069;0.3141;0.1264;0.0532;0.1016;-0.0612;0.0375;54.0;-39.71;-2.51;-16.2;32.87;60.35;83.6;5.0;31.59;39.468887;-0.340908;70.4;NaN;;15.207;;0 / 30;2585;2021-10-20 00:23:36:661
-4.0425;-9.1845;0.0877;0.1034;0.0121;9.8069;0.3141;0.1264;0.0532;0.1016;-0.0612;0.0375;54.0;-39.71;-2.51;-16.2;32.87;60.35;83.6;5.0;31.59;39.468887;-0.340908;70.4;NaN;;15.207;;0 / 30;2591;2021-10-20 00:23:36:667
-4.0425;-9.1845;0.0877;0.1034;0.0121;9.8069;0.3141;0.1264;0.0532;0.1016;-0.0612;0.0375;54.0;-39.71;-2.51;-16.2;32.87;60.35;83.6;5.0;31.59;39.468887;-0.340908;70.4;NaN;;15.207;;0 / 30;2596;2021-10-20 00:23:36:672
-4.0425;-9.1845;0.0877;0.1034;0.0121;9.8069;0.3141;0.1264;0.0532;0.1016;-0.0612;0.0375;54.0;-39.71;-2.51;-16.2;32.87;60.35;83.6;5.0;31.59;39.468887;-0.340908;70.4;NaN;;15.207;;0 / 30;2601;2021-10-20 00:23:36:677
-3.9176;-9.3486;0.0696;0.2577;-0.1077;9.8028;0.1881;0.2959;0.0215;0.0917;-0.0557;0.0323;54.0;-39.6;-2.76;-16.31;32.87;60.35;83.6;5.0;31.59;39.468887;-0.340908;70.4;NaN;;15.207;;0 / 30;2606;2021-10-20 00:23:36:682
-3.9176;-9.3486;0.0696;0.2577;-0.1077;9.8028;0.1881;0.2959;0.0215;0.0917;-0.0557;0.0323;54.0;-39.6;-2.76;-16.31;32.87;60.35;83.6;5.0;31.59;39.468887;-0.340908;70.4;NaN;;15.207;;0 / 30;2611;2021-10-20 00:23:36:687
-3.9176;-9.3486;0.0696;0.2577;-0.1077;9.8028;0.1881;0.2959;0.0215;0.0917;-0.0557;0.0323;54.0;-39.6;-2.76;-16.31;32.87;60.35;83.6;5.0;31.59;39.468887;-0.340908;70.4;NaN;;15.207;;0 / 30;2615;2021-10-20 00:23:36:691
-3.7726;-9.3561;0.1418;0.3405;-0.073;9.8009;0.1881;0.2959;0.0215;0.0917;-0.0557;0.0323;54.0;-39.24;-2.59;-16.14;37.83;59.57;79.84;5.0;31.59;39.468887;-0.340908;70.4;NaN;;15.207;;0 / 30;2621;2021-10-20 00:23:36:697
-3.7726;-9.3561;0.1418;0.3405;-0.073;9.8009;0.1881;0.2959;0.0215;0.0917;-0.0557;0.0323;54.0;-39.24;-2.59;-16.14;37.83;59.57;79.84;5.0;31.59;39.468887;-0.340908;70.4;NaN;;15.207;;0 / 30;2625;2021-10-20 00:23:36:701
-3.7726;-9.3561;0.1418;0.3405;-0.073;9.8009;0.1881;0.2959;0.0215;0.0917;-0.0557;0.0323;54.0;-39.24;-2.59;-16.14;37.83;59.57;79.84;5.0;31.59;39.468887;-0.340908;70.4;NaN;;15.207;;0 / 30;2631;2021-10-20 00:23:36:707
-4.0724;-9.259;0.0304;0.0096;-0.042;9.8077;0.064;0.2692;-0.0282;0.0777;-0.0477;0.0245;54.0;-39.49;-3.06;-15.96;37.83;59.57;79.84;5.0;31.59;39.468887;-0.340908;70.4;NaN;;15.207;;0 / 30;2636;2021-10-20 00:23:36:712
-4.0724;-9.259;0.0304;0.0096;-0.042;9.8077;0.064;0.2692;-0.0282;0.0777;-0.0477;0.0245;54.0;-39.49;-3.06;-15.96;37.83;59.57;79.84;5.0;31.59;39.468887;-0.340908;70.4;NaN;;15.207;;0 / 30;2641;2021-10-20 00:23:36:717
-4.0724;-9.259;0.0304;0.0096;-0.042;9.8077;0.064;0.2692;-0.0282;0.0777;-0.0477;0.0245;54.0;-39.49;-3.06;-15.96;37.83;59.57;79.84;5.0;31.59;39.468887;-0.340908;70.4;NaN;;15.207;;0 / 30;2645;2021-10-20 00:23:36:721
-4.0724;-9.259;0.0304;0.0096;-0.042;9.8077;0.064;0.2692;-0.0282;0.0777;-0.0477;0.0245;54.0;-39.49;-3.06;-15.96;37.83;59.57;79.84;5.0;31.59;39.468887;-0.340908;70.4;NaN;;15.207;;0 / 30;2651;2021-10-20 00:23:36:727
-3.9696;-9.3099;0.0415;0.0857;-0.1032;9.8067;0.0209;0.2505;-0.0192;0.056;-0.0351;0.0136;54.0;-39.6;-3.06;-16.14;37.83;59.57;79.84;5.0;31.59;39.468887;-0.340908;70.4;NaN;;15.207;;0 / 30;2656;2021-10-20 00:23:36:732
-3.9696;-9.3099;0.0415;0.0857;-0.1032;9.8067;0.0209;0.2505;-0.0192;0.056;-0.0351;0.0136;54.0;-39.6;-3.06;-16.14;37.83;59.57;79.84;5.0;31.59;39.468887;-0.340908;70.4;NaN;;15.207;;0 / 30;2661;2021-10-20 00:23:36:737
-3.9696;-9.3099;0.0415;0.0857;-0.1032;9.8067;0.0209;0.2505;-0.0192;0.056;-0.0351;0.0136;54.0;-39.6;-3.06;-16.14;37.83;59.57;79.84;5.0;31.59;39.468887;-0.340908;70.4;NaN;;15.207;;0 / 30;2666;2021-10-20 00:23:36:742
-3.9375;-9.3269;0.0393;0.1365;-0.1015;9.8036;-0.0928;0.4158;1.0E-4;0.0319;-0.0191;-1.0E-4;54.0;-39.6;-3.06;-16.14;37.83;59.57;79.84;5.0;31.59;39.468887;-0.340908;70.4;NaN;;15.207;;0 / 30;2670;2021-10-20 00:23:36:746
-3.9375;-9.3269;0.0393;0.1365;-0.1015;9.8036;-0.0928;0.4158;1.0E-4;0.0319;-0.0191;-1.0E-4;54.0;-39.6;-1.86;-16.26;38.9;59.54;77.88;5.0;31.59;39.468887;-0.340908;70.4;NaN;;15.207;;0 / 30;2676;2021-10-20 00:23:36:752
-3.9375;-9.3269;0.0393;0.1365;-0.1015;9.8036;-0.0928;0.4158;1.0E-4;0.0319;-0.0191;-1.0E-4;54.0;-39.6;-1.86;-16.26;38.9;59.54;77.88;5.0;31.59;39.468887;-0.340908;70.4;NaN;;15.207;;0 / 30;2680;2021-10-20 00:23:36:756
-3.9359;-9.2364;0.0552;-0.1326;0.0683;9.804;-0.0116;0.2859;-0.0031;0.0058;-0.0034;-0.0087;54.0;-39.6;-1.86;-16.26;38.9;59.54;77.88;5.0;31.59;39.468887;-0.340908;70.4;NaN;;15.207;;0 / 30;2686;2021-10-20 00:23:36:762
-3.9359;-9.2364;0.0552;-0.1326;0.0683;9.804;-0.0116;0.2859;-0.0031;0.0058;-0.0034;-0.0087;54.0;-39.6;-1.86;-16.26;38.9;59.54;77.88;5.0;31.59;39.468887;-0.340908;70.4;NaN;;15.207;;0 / 30;2690;2021-10-20 00:23:36:766
-3.9359;-9.2364;0.0552;-0.1326;0.0683;9.804;-0.0116;0.2859;-0.0031;0.0058;-0.0034;-0.0087;54.0;-39.6;-1.86;-16.26;38.9;59.54;77.88;5.0;31.59;39.468887;-0.340908;70.4;NaN;;15.207;;0 / 30;2695;2021-10-20 00:23:36:771
-3.9359;-9.2364;0.0552;-0.1326;0.0683;9.804;-0.0116;0.2859;-0.0031;0.0058;-0.0034;-0.0087;54.0;-39.6;-1.86;-16.26;38.9;59.54;77.88;5.0;31.59;39.468887;-0.340908;70.4;NaN;;15.207;;0 / 30;2701;2021-10-20 00:23:36:777
-4.0892;-9.1795;0.1022;-0.2836;0.1634;9.8029;0.1166;0.1763;-0.0075;-0.0067;0.0043;-0.0089;55.0;-39.54;-1.61;-16.01;38.9;59.54;77.88;5.0;31.59;39.468887;-0.340908;70.4;NaN;;15.207;;0 / 30;2706;2021-10-20 00:23:36:782
-4.0892;-9.1795;0.1022;-0.2836;0.1634;9.8029;0.1166;0.1763;-0.0075;-0.0067;0.0043;-0.0089;55.0;-39.54;-1.61;-16.01;38.9;59.54;77.88;5.0;31.59;39.468887;-0.340908;70.4;NaN;;15.207;;0 / 30;2711;2021-10-20 00:23:36:787
-4.0892;-9.1795;0.1022;-0.2836;0.1634;9.8029;0.1166;0.1763;-0.0075;-0.0067;0.0043;-0.0089;55.0;-39.54;-1.61;-16.01;38.9;59.54;77.88;5.0;31.59;39.468887;-0.340908;70.4;NaN;;15.207;;0 / 30;2716;2021-10-20 00:23:36:792
-4.1144;-9.1643;0.0663;-0.2703;0.188;9.8024;0.1166;0.1763;-0.0075;-0.0067;0.0043;-0.0089;55.0;-39.6;-1.61;-15.96;34.78;59.62;81.67;5.0;31.59;39.468887;-0.340908;70.4;NaN;;15.207;;0 / 30;2720;2021-10-20 00:23:36:796
-4.1144;-9.1643;0.0663;-0.2703;0.188;9.8024;0.1166;0.1763;-0.0075;-0.0067;0.0043;-0.0089;55.0;-39.6;-1.61;-15.96;34.78;59.62;81.67;5.0;31.59;39.468887;-0.340908;70.4;NaN;;15.207;;0 / 30;2726;2021-10-20 00:23:36:802
-4.1144;-9.1643;0.0663;-0.2703;0.188;9.8024;0.1166;0.1763;-0.0075;-0.0067;0.0043;-0.0089;55.0;-39.6;-1.61;-15.96;34.78;59.62;81.67;5.0;31.59;39.468887;-0.340908;70.4;NaN;;15.207;;0 / 30;2730;2021-10-20 00:23:36:806
-3.9936;-9.2348;0.0275;-0.0285;0.0075;9.8076;0.191;0.1742;-0.0318;-0.008;0.0055;-0.0062;55.0;-39.49;-1.56;-15.84;34.78;59.62;81.67;5.0;43.955;39.468887;-0.340908;70.4;NaN;;15.207;;0 / 30;2736;2021-10-20 00:23:36:812
-3.9936;-9.2348;0.0275;-0.0285;0.0075;9.8076;0.191;0.1742;-0.0318;-0.008;0.0055;-0.0062;55.0;-39.49;-1.56;-15.84;34.78;59.62;81.67;5.0;43.955;39.468887;-0.340908;70.4;NaN;;15.207;;0 / 30;2740;2021-10-20 00:23:36:816
-3.9936;-9.2348;0.0275;-0.0285;0.0075;9.8076;0.191;0.1742;-0.0318;-0.008;0.0055;-0.0062;55.0;-39.49;-1.56;-15.84;34.78;59.62;81.67;5.0;43.955;39.468887;-0.340908;70.4;NaN;;15.207;;0 / 30;2746;2021-10-20 00:23:36:822
-3.9936;-9.2348;0.0275;-0.0285;0.0075;9.8076;0.191;0.1742;-0.0318;-0.008;0.0055;-0.0062;55.0;-39.49;-1.56;-15.84;34.78;59.62;81.67;5.0;43.955;39.468887;-0.340908;70.4;NaN;;15.207;;0 / 30;2750;2021-10-20 00:23:36:826
-3.9845;-9.2708;0.0191;-9.0E-4;-0.0431;9.8091;0.2136;0.189;-0.0177;-0.0012;0.0037;-0.003;55.0;-39.3;-1.56;-15.96;35.58;59.83;81.4;5.0;43.955;39.468887;-0.340908;70.4;NaN;;15.207;;0 / 30;2756;2021-10-20 00:23:36:832
-3.9845;-9.2708;0.0191;-9.0E-4;-0.0431;9.8091;0.2136;0.189;-0.0177;-0.0012;0.0037;-0.003;55.0;-39.3;-1.56;-15.96;35.58;59.83;81.4;5.0;43.955;39.468887;-0.340908;70.4;NaN;;15.207;;0 / 30;2761;2021-10-20 00:23:36:837
-3.9845;-9.2708;0.0191;-9.0E-4;-0.0431;9.8091;0.2136;0.189;-0.0177;-0.0012;0.0037;-0.003;55.0;-39.3;-1.56;-15.96;35.58;59.83;81.4;5.0;43.955;39.468887;-0.340908;70.4;NaN;;15.207;;0 / 30;2766;2021-10-20 00:23:36:842
-3.9923;-9.2971;0.0432;0.056;-0.0488;9.8051;0.1889;0.2547;0.0041;0.0059;0.0022;-0.0016;55.0;-39.3;-1.56;-15.96;35.58;59.83;81.4;5.0;43.955;39.468887;-0.340908;70.4;NaN;;15.207;;0 / 30;2771;2021-10-20 00:23:36:847
