sep=;
ACCELEROMETER X (m/s²);ACCELEROMETER Y (m/s²);ACCELEROMETER Z (m/s²);GRAVITY X (m/s²);GRAVITY Y (m/s²);GRAVITY Z (m/s²);LINEAR ACCELERATION X (m/s²);LINEAR ACCELERATION Y (m/s²);LINEAR ACCELERATION Z (m/s²);GYROSCOPE X (rad/s);GYROSCOPE Y (rad/s);GYROSCOPE Z (rad/s);LIGHT (lux);MAGNETIC FIELD X (μT);MAGNETIC FIELD Y (μT);MAGNETIC FIELD Z (μT);ORIENTATION Z (azimuth °);ORIENTATION X (pitch °);ORIENTATION Y (roll °);PROXIMITY (m);SOUND LEVEL (dB);LOCATION Latitude : ;LOCATION Longitude : ;LOCATION Altitude ( m);LOCATION Altitude-google ( m);LOCATION Speed ( Kmh);LOCATION Accuracy ( m);LOCATION ORIENTATION (°);Satellites in range;Time since start in ms ;YYYY-MO-DD HH-MI-SS_SSS
-6.577;-2.649;5.1431;-2.964;7.3646;5.7604;-5.4439;2.0938;4.8572;-1.9693;-0.111;0.6813;35.0;12.71;-34.86;-24.06;208.84;66.55;-7.54;5.0;48.522;39.469074;-0.341025;14.5;NaN;0.0;3.1;312.31;9 / 34;12;2021-10-20 19:34:56:319
8.042;-11.9531;-1.754;-8.078;-5.4348;-1.1779;-1.2616;11.2078;9.2767;-1.9693;-0.111;0.6813;35.0;3.0;-32.51;-26.21;110.26;-48.66;27.23;5.0;52.887;39.469074;-0.341025;14.5;NaN;0.0;3.1;312.31;9 / 34;63;2021-10-20 19:34:56:370
27.818;-9.933;-1.0789;-3.2944;-9.232;-0.3591;-20.9723;10.9553;1.5841;-4.802;-2.3068;2.6478;35.0;-18.49;-28.86;-13.31;52.66;70.25;96.22;5.0;52.887;39.469074;-0.341025;14.5;NaN;0.0;3.1;312.31;9 / 34;114;2021-10-20 19:34:56:421
34.808;-2.874;15.855;-0.7326;-8.9016;4.0558;-23.8146;4.5127;0.3162;-0.736;-4.1008;1.1007;13.0;-18.49;-28.86;-13.31;52.66;70.25;96.22;5.0;52.887;39.469074;-0.341025;14.5;NaN;0.0;3.1;312.31;9 / 34;163;2021-10-20 19:34:56:470
34.808;-2.874;15.855;-0.7326;-8.9016;4.0558;-23.8146;4.5127;0.3162;-0.736;-4.1008;1.1007;13.0;-37.01;-14.1;-4.86;96.7;65.16;10.24;5.0;52.887;39.469074;-0.341025;14.5;NaN;0.0;3.1;312.31;9 / 34;213;2021-10-20 19:34:56:520
19.716;0.828;7.638;0.3783;-9.1411;3.5386;-15.0824;-5.8821;13.3624;0.9926;-2.9151;-0.4546;13.0;-37.01;-14.1;-4.86;96.7;65.16;10.24;5.0;52.887;39.469074;-0.341025;14.5;NaN;0.0;3.1;312.31;9 / 34;262;2021-10-20 19:34:56:569
2.4;4.2341;-13.2791;2.9305;-1.6664;-9.2129;-1.6133;-6.6925;7.5543;0.9926;-2.9151;-0.4546;13.0;-39.79;-4.86;-9.36;109.98;68.73;-6.1;5.0;52.887;39.469074;-0.341025;14.5;NaN;0.0;3.1;312.31;9 / 34;312;2021-10-20 19:34:56:619
10.182;3.4751;-1.3811;3.1412;-9.2081;-1.245;-2.6526;-5.1706;0.6156;-2.4838;-2.0981;-2.0446;13.0;-38.76;-5.04;-13.56;221.53;69.85;-111.62;0.0;61.17;39.469074;-0.341025;14.5;NaN;0.0;3.1;312.31;9 / 34;362;2021-10-20 19:34:56:669
7.743;-3.736;1.6991;-4.1803;-8.667;1.8914;4.5306;1.56;0.9567;-4.7564;-1.9704;-1.7414;13.0;-38.76;-5.04;-13.56;221.53;69.85;-111.62;0.0;61.17;39.469074;-0.341025;14.5;NaN;0.0;3.1;312.31;9 / 34;413;2021-10-20 19:34:56:720
7.319;-5.0359;-3.564;-5.1571;-7.5034;-3.6488;4.5306;1.56;0.9567;-4.7564;-1.9704;-1.7414;13.0;-39.36;-8.59;-10.2;221.53;69.85;-111.62;0.0;61.17;39.469074;-0.341025;14.5;NaN;0.0;3.1;312.31;9 / 34;462;2021-10-20 19:34:56:769
12.255;-4.4231;1.046;-5.1571;-7.5034;-3.6488;2.4222;3.9002;3.8826;1.8893;-0.5228;0.6815;0.0;-39.36;-12.36;-2.34;309.97;49.9;125.28;0.0;61.17;39.469074;-0.341025;14.5;NaN;0.0;3.1;312.31;9 / 34;512;2021-10-20 19:34:56:819
12.255;-4.4231;1.046;-3.3136;-9.1985;0.7757;-2.5985;2.6464;-1.0611;2.7951;-1.0036;1.104;0.0;-39.36;-12.36;-2.34;309.97;49.9;125.28;0.0;61.17;39.469074;-0.341025;14.5;NaN;0.0;3.1;312.31;9 / 34;562;2021-10-20 19:34:56:869
21.8201;-5.313;-2.056;-1.8435;-9.5002;-1.5897;-6.7701;0.745;2.2457;2.7951;-1.0036;1.104;0.0;-38.16;-14.64;1.91;309.97;49.9;125.28;0.0;61.17;39.469074;-0.341025;14.5;NaN;0.0;3.1;312.31;9 / 34;612;2021-10-20 19:34:56:919
17.294;-2.0321;2.1371;-3.0454;-9.1458;-1.8004;-6.7701;0.745;2.2457;2.6711;-0.8319;0.1367;0.0;-37.44;-17.34;2.16;310.15;75.63;130.77;0.0;62.372;39.469074;-0.341025;14.5;NaN;0.0;3.1;312.31;9 / 34;663;2021-10-20 19:34:56:970
3.3821;-1.936;-5.584;-0.8045;-0.2825;-9.7683;-0.6523;0.803;1.5069;1.5855;-0.7521;-0.1009;0.0;-37.44;-17.34;2.16;310.15;75.63;130.77;0.0;62.372;39.469074;-0.341025;14.5;NaN;0.0;3.1;312.31;9 / 34;713;2021-10-20 19:34:57:020
-4.739;-1.5671;-0.713;-0.8045;-0.2825;-9.7683;15.3153;-0.3228;-1.6888;1.5855;-0.7521;-0.1009;0.0;-36.9;-21.06;-0.79;310.15;75.63;130.77;0.0;62.372;39.469074;-0.341025;14.5;NaN;0.0;3.1;312.31;9 / 34;763;2021-10-20 19:34:57:070
35.811;-1.476;12.14;-0.8475;9.3039;-2.9832;15.4489;2.8247;-1.6651;0.7864;-0.963;0.7721;0.0;-36.9;-21.9;-1.39;243.69;-71.57;164.14;0.0;62.372;39.469074;-0.341025;14.5;NaN;0.0;3.1;312.31;9 / 34;813;2021-10-20 19:34:57:120
35.811;-1.476;12.14;-4.2856;-8.7388;1.2163;15.4489;2.8247;-1.6651;0.7864;-0.963;0.7721;0.0;-36.9;-21.9;-1.39;243.69;-71.57;164.14;0.0;62.372;39.469074;-0.34101;14.5;NaN;0.0;3.3;312.31;6 / 34;863;2021-10-20 19:34:57:170
10.1321;-2.846;-2.8841;-5.9807;-6.9863;-3.4093;-1.2893;-1.4124;2.4648;2.0543;0.5774;1.6805;0.0;-39.06;-19.5;-2.51;243.69;-71.57;164.14;0.0;62.372;39.469074;-0.34101;14.5;NaN;0.0;3.3;312.31;6 / 34;912;2021-10-20 19:34:57:219
8.846;-9.737;1.737;-6.8953;-6.6511;2.1069;-1.2893;-1.4124;2.4648;0.8019;0.18;0.2513;0.0;-39.06;-19.5;-2.51;243.69;-71.57;164.14;0.0;64.888;39.469074;-0.34101;14.5;NaN;0.0;3.3;312.31;6 / 34;962;2021-10-20 19:34:57:269
15.417;-4.861;13.2221;0.0096;-8.8155;-4.3;-1.1244;5.7346;-3.1511;0.8019;0.18;0.2513;0.0;-40.61;-14.1;-6.19;49.55;42.69;73.01;0.0;64.888;39.469074;-0.34101;14.5;NaN;0.0;3.3;312.31;6 / 34;1013;2021-10-20 19:34:57:320
13.191;0.828;-2.2159;0.0096;-8.8155;-4.3;-2.8241;-4.6733;12.8683;0.2009;0.1651;0.0639;0.0;-39.84;-5.76;-14.04;283.85;64.0;-179.87;0.0;64.888;39.469074;-0.34101;14.5;NaN;0.0;3.3;312.31;6 / 34;1062;2021-10-20 19:34:57:369
17.262;4.071;-4.705;1.4653;-9.6247;1.1827;-9.2652;-11.8325;1.4902;-2.185;0.6203;-1.8158;0.0;-39.84;-5.76;-14.04;283.85;64.0;-179.87;0.0;64.888;39.469074;-0.34101;14.5;NaN;0.0;3.3;312.31;6 / 34;1112;2021-10-20 19:34:57:419
8.937;-24.6731;-5.792;-1.0965;-9.7205;0.7087;-2.5666;14.6657;-10.1577;-2.185;0.6203;-1.8158;0.0;-40.01;-1.01;-19.09;58.66;82.35;57.13;0.0;64.888;39.469074;-0.34101;14.5;NaN;0.0;3.3;312.31;6 / 34;1168;2021-10-20 19:34:57:475
8.937;-24.6731;-5.792;-9.1075;-2.5809;-2.5618;-2.5666;14.6657;-10.1577;-2.5083;0.4793;-0.1251;0.0;-41.59;-4.09;-17.34;31.99;15.26;105.71;0.0;64.888;39.469074;-0.34101;14.5;NaN;0.0;3.3;312.31;6 / 34;1212;2021-10-20 19:34:57:519
5.529;-9.371;4.26;-7.8913;-4.8267;3.2705;3.5006;5.5626;-4.8533;-2.5083;0.4793;-0.1251;0.0;-41.59;-4.09;-17.34;31.99;15.26;105.71;0.0;63.156;39.469074;-0.34101;14.5;NaN;0.0;3.3;312.31;6 / 34;1262;2021-10-20 19:34:57:569
7.863;-3.7841;7.7531;2.3846;-8.4898;4.2904;0.3772;-1.5409;-8.0674;0.3875;0.1233;2.4549;0.0;-43.09;-7.26;-15.41;70.69;29.47;67.49;0.0;63.156;39.469074;-0.34101;14.5;NaN;0.0;3.3;312.31;6 / 34;1313;2021-10-20 19:34:57:620
2.477;-2.901;-2.96;2.3846;-8.4898;4.2904;0.3772;-1.5409;-8.0674;0.425;0.1559;0.9835;0.0;-43.09;-7.26;-15.41;70.69;29.47;67.49;0.0;63.156;39.469074;-0.34101;14.5;NaN;0.0;3.3;312.31;6 / 34;1363;2021-10-20 19:34:57:670
13.313;-0.78;-2.9651;-6.3111;-7.3263;1.6424;1.4662;-0.1223;-1.265;0.425;0.1559;0.9835;0.0;-44.76;-7.5;-14.46;45.35;48.33;75.41;0.0;63.156;39.469074;-0.34101;14.5;NaN;0.0;3.3;312.31;6 / 34;1412;2021-10-20 19:34:57:719
13.313;-0.78;-2.9651;0.5076;-9.6534;-1.6424;-4.4118;-5.498;2.0798;-1.6475;0.4285;-1.8833;0.0;-45.66;-7.09;-11.81;266.01;79.9;-162.83;0.0;63.156;39.469074;-0.34101;14.5;NaN;0.0;3.3;312.31;6 / 34;1462;2021-10-20 19:34:57:769
10.4861;0.296;-0.744;-1.5802;-9.5672;1.47;-4.4118;-5.498;2.0798;-0.9709;0.0521;-1.1143;0.0;-45.66;-7.09;-11.81;266.01;79.9;-162.83;0.0;63.156;39.469074;-0.34101;14.5;NaN;0.0;3.3;312.31;6 / 34;1512;2021-10-20 19:34:57:819
7.922;-6.465;-6.2711;-3.3136;-7.5657;-5.2864;6.9528;3.9552;1.8987;-0.9709;0.0521;-1.1143;0.0;-46.14;-7.2;-1.26;46.29;77.29;47.07;0.0;64.902;39.469074;-0.34101;14.5;NaN;0.0;3.3;312.31;6 / 34;1562;2021-10-20 19:34:57:869
10.776;-0.988;-0.852;-3.5913;-8.4467;-3.4572;-1.766;-2.5839;-0.6808;-0.0544;-0.7554;-0.3582;0.0;-44.89;-6.3;11.46;295.06;59.45;133.91;0.0;64.902;39.469074;-0.34101;14.5;NaN;0.0;3.3;312.31;6 / 34;1612;2021-10-20 19:34:57:919
10.347;-6.5029;6.426;-8.4228;-4.5442;2.1356;-1.766;-2.5839;-0.6808;2.5935;-1.2541;0.055;0.0;-44.89;-6.3;11.46;295.06;59.45;133.91;0.0;64.902;39.469074;-0.34101;14.5;NaN;0.0;3.3;312.31;6 / 34;1663;2021-10-20 19:34:57:970
3.288;-20.762;-5.2009;-8.4228;-4.5442;2.1356;0.1052;12.3534;-5.8448;2.5935;-1.2541;0.055;0.0;-41.59;-4.61;18.24;336.63;27.61;75.77;0.0;64.902;39.469074;-0.34101;14.5;NaN;0.0;3.3;312.31;6 / 34;1713;2021-10-20 19:34:58:020
1.9121;-12.114;-2.951;-9.3996;-0.0287;-2.8012;6.685;5.4287;9.2431;2.702;-1.9669;2.2287;0.0;-41.59;-4.61;18.24;336.63;27.61;75.77;0.0;64.902;39.469074;-0.34101;14.5;NaN;0.0;3.3;312.31;6 / 34;1762;2021-10-20 19:34:58:069
1.9121;-12.114;-2.951;-7.6519;-2.6336;5.545;6.685;5.4287;9.2431;2.702;-1.9669;2.2287;0.0;-37.14;2.04;23.29;273.66;0.17;106.59;0.0;64.902;39.469074;-0.34101;14.5;NaN;0.0;3.3;312.31;4 / 34;1812;2021-10-20 19:34:58:119
8.3651;-5.435;-18.3199;-7.8578;-5.5929;1.7861;0.615;2.4764;1.3573;1.6074;-2.1663;2.2799;0.0;-35.76;12.71;23.46;336.73;34.76;77.19;0.0;66.261;39.469074;-0.34101;14.5;NaN;0.0;3.3;312.31;4 / 34;1862;2021-10-20 19:34:58:169
7.7501;10.5701;1.1651;-7.9918;1.6712;5.4348;-1.9273;-18.0025;-3.8065;1.4088;-1.7077;-0.51;0.0;-35.76;12.71;23.46;336.73;34.76;77.19;0.0;66.261;39.469074;-0.34101;14.5;NaN;0.0;3.3;312.31;4 / 34;1913;2021-10-20 19:34:58:220
-0.971;-18.6221;-3.7309;-8.9399;-3.2992;-2.308;6.4286;10.7964;1.4494;1.4088;-1.7077;-0.51;0.0;-36.06;21.54;18.49;19.81;-9.81;55.78;0.0;66.261;39.469074;-0.34101;14.5;NaN;0.0;3.3;312.31;4 / 34;1963;2021-10-20 19:34:58:270
0.617;-12.087;0.7271;-8.9399;-3.2992;-2.308;6.4286;10.7964;1.4494;0.5844;-0.8563;1.125;0.0;-30.06;30.84;14.04;330.87;19.66;104.48;0.0;66.261;39.469074;-0.34101;14.5;NaN;0.0;3.3;312.31;4 / 34;2013;2021-10-20 19:34:58:320
-6.422;-12.93;-6.972;-9.6438;0.407;-1.743;5.0077;8.4062;1.2045;0.1126;0.1394;2.706;0.0;-30.06;30.84;14.04;330.87;19.66;104.48;0.0;66.261;39.469074;-0.34101;14.5;NaN;0.0;3.3;312.31;4 / 34;2062;2021-10-20 19:34:58:369
-6.422;-12.93;-6.972;-8.0397;2.4517;-5.0518;5.5586;-0.6088;3.4361;0.1126;0.1394;2.706;0.0;-22.74;37.8;11.16;327.16;-14.48;122.14;0.0;66.261;39.469074;-0.34101;14.5;NaN;0.0;3.3;312.31;4 / 34;2112;2021-10-20 19:34:58:419
6.149;-12.504;-7.875;-9.73;-0.7949;-0.9385;5.5586;-0.6088;3.4361;-1.0996;1.4245;2.2252;0.0;-22.74;37.8;11.16;327.16;-14.48;122.14;0.0;66.261;39.469074;-0.34101;14.5;NaN;0.0;3.3;312.31;4 / 34;2163;2021-10-20 19:34:58:470
-4.667;-15.891;-5.232;-9.6534;1.1061;-1.3072;4.7113;8.7739;0.8501;-1.0996;1.4245;2.2252;0.0;-22.39;38.94;9.96;343.44;4.65;95.51;0.0;66.261;39.469074;-0.34101;14.5;NaN;0.0;3.3;312.31;4 / 34;2213;2021-10-20 19:34:58:520
2.7161;-18.1;0.5501;-9.6582;-1.5036;-0.8188;-1.1534;10.0355;-2.6916;-0.5039;1.1056;1.5327;0.0;-24.54;36.0;14.29;332.57;-6.48;97.71;0.0;66.738;39.469074;-0.34101;14.5;NaN;0.0;3.3;312.31;4 / 34;2262;2021-10-20 19:34:58:569
-3.777;-13.112;-8.1911;-9.6582;-1.5036;-0.8188;-1.1534;10.0355;-2.6916;0.5841;-0.5159;0.3809;0.0;-24.54;36.0;14.29;332.57;-6.48;97.71;0.0;66.738;39.469074;-0.34101;14.5;NaN;0.0;3.3;312.31;4 / 34;2312;2021-10-20 19:34:58:619
-1.2469;-5.2151;0.5141;-8.9495;3.5434;-1.8771;4.366;3.5746;5.9423;0.5841;-0.5159;0.3809;0.0;-26.51;29.51;24.36;304.84;-21.18;101.85;0.0;66.738;39.469074;-0.34101;14.5;NaN;0.0;3.3;312.31;4 / 34;2362;2021-10-20 19:34:58:669
-1.2469;-5.2151;0.5141;-7.6662;0.2251;-6.11;1.4864;-4.3788;-2.5774;0.4194;-1.5689;0.1994;0.0;-24.79;17.21;35.59;304.84;-21.18;101.85;0.0;66.738;39.469074;-0.34101;14.5;NaN;0.0;3.3;312.31;4 / 34;2412;2021-10-20 19:34:58:719
-0.7849;-4.095;-3.195;-9.5337;-1.2641;-1.9249;0.5594;-5.4414;0.8742;-0.7304;-1.6904;0.5695;0.0;-24.79;17.21;35.59;304.84;-21.18;101.85;0.0;66.738;39.469074;-0.34101;14.5;NaN;0.0;3.3;312.31;4 / 34;2463;2021-10-20 19:34:58:770
-0.186;-0.876;-1.22;-2.9161;2.1835;-9.1075;-0.4325;-8.5746;-1.3504;-0.7304;-1.6904;0.5695;0.0;-19.31;2.04;43.31;274.1;7.41;101.42;0.0;66.738;39.469074;-0.34101;14.5;NaN;0.0;3.3;312.31;4 / 34;2512;2021-10-20 19:34:58:819
-1.263;1.079;-3.815;3.7924;4.0079;-8.1068;-0.4325;-8.5746;-1.3504;-2.519;-1.327;-0.9366;0.0;-19.31;2.04;43.31;274.1;7.41;101.42;0.0;66.346;39.469074;-0.34101;14.5;NaN;0.0;3.3;312.31;4 / 34;2562;2021-10-20 19:34:58:869
-2.5061;0.1481;-8.574;3.7924;4.0079;-8.1068;1.2301;-10.3832;-0.8957;-2.519;-1.327;-0.9366;0.0;-14.64;-9.9;44.64;28.42;-24.12;-154.93;0.0;66.346;39.469074;-0.34101;14.5;NaN;0.0;3.3;312.31;4 / 34;2613;2021-10-20 19:34:58:920
-4.827;-1.184;-11.793;-0.2873;1.0056;-9.7492;-0.3683;-6.7224;3.8816;-4.7857;0.2006;2.5609;0.0;-9.84;-15.41;44.34;227.24;-5.89;178.31;0.0;66.346;39.469074;-0.34101;14.5;NaN;0.0;3.3;312.31;4 / 34;2662;2021-10-20 19:34:58:969
2.2571;-5.1169;-3.188;-3.0981;4.5394;-8.1211;-0.3257;4.1577;11.453;-3.0499;-0.8536;-0.0402;0.0;-9.84;-15.41;44.34;227.24;-5.89;178.31;0.0;66.346;39.469074;-0.34101;14.5;NaN;0.0;3.3;312.31;4 / 34;2713;2021-10-20 19:34:59:020
2.2571;-5.1169;-3.188;-0.1772;9.7779;0.7039;-0.3257;4.1577;11.453;-3.0499;-0.8536;-0.0402;0.0;-6.36;-12.66;45.24;287.8;-27.58;159.12;0.0;66.346;39.469074;-0.34101;14.5;NaN;0.0;3.3;312.31;4 / 34;2763;2021-10-20 19:34:59:070
3.104;-11.709;-9.2869;-7.9296;2.0399;-5.4061;-5.3573;7.3829;0.7665;-1.2473;-1.4909;-1.2057;0.0;-6.79;-4.69;46.39;269.04;-12.0;124.28;0.0;66.346;39.469074;-0.34101;14.5;NaN;0.0;3.3;312.31;4 / 34;2813;2021-10-20 19:34:59:120
-2.905;-7.235;-3.645;-8.0924;1.0391;-5.4444;0.2788;2.4474;-4.5118;0.8931;-1.6941;-1.8371;0.0;-6.79;-4.69;46.39;269.04;-12.0;124.28;0.0;63.769;39.46908;-0.341023;14.6;NaN;0.0;3.9;312.31;4 / 34;2863;2021-10-20 19:34:59:170
-0.828;-9.725;-4.095;-8.0924;1.0391;-5.4444;0.2788;2.4474;-4.5118;0.8931;-1.6941;-1.8371;0.0;-9.36;2.64;45.66;269.04;-12.0;124.28;0.0;63.769;39.46908;-0.341023;14.6;NaN;0.0;3.9;312.31;4 / 34;2913;2021-10-20 19:34:59:220
-0.339;-9.821;-2.194;-8.825;0.0335;-4.276;-2.0766;4.064;-3.3805;1.556;-0.8195;-1.822;0.0;-15.24;14.7;42.11;288.71;-0.2;115.85;0.0;63.769;39.46908;-0.341023;14.6;NaN;0.0;3.9;312.31;4 / 34;2962;2021-10-20 19:34:59:269
-0.339;-9.821;-2.194;-8.5377;-0.3543;-4.8123;-2.3316;3.2061;-4.5418;1.556;-0.8195;-1.822;0.0;-15.24;14.7;42.11;288.71;-0.2;115.85;0.0;63.769;39.46908;-0.341023;14.6;NaN;0.0;3.9;312.31;4 / 34;3012;2021-10-20 19:34:59:319
1.989;-10.347;-2.2661;-9.3661;-2.0303;-2.0877;-3.5773;2.5472;-4.6194;1.5133;0.1238;-1.3163;0.0;-18.96;23.34;37.86;288.71;-0.2;115.85;0.0;63.769;39.46908;-0.341023;14.6;NaN;0.0;3.9;312.31;4 / 34;3063;2021-10-20 19:34:59:370
-0.6791;-7.1419;-4.014;-9.3661;-2.0303;-2.0877;-3.5773;2.5472;-4.6194;1.2497;0.7637;-0.8063;0.0;-20.59;32.4;31.44;314.44;11.95;102.57;0.0;63.769;39.46908;-0.341023;14.6;NaN;0.0;3.9;312.31;4 / 34;3112;2021-10-20 19:34:59:419
1.7111;-7.764;-3.4849;-8.8538;-2.4038;-3.4716;-2.7286;-0.3172;-1.5857;1.2497;0.7637;-0.8063;0.0;-20.59;32.4;31.44;314.44;11.95;102.57;0.0;63.769;39.46908;-0.341023;14.6;NaN;0.0;3.9;312.31;4 / 34;3162;2021-10-20 19:34:59:469
1.7111;-7.764;-3.4849;-9.1506;-3.4189;-0.8763;-2.9475;-1.5436;-3.9237;0.9347;0.8931;-0.7096;0.0;-20.59;35.89;28.01;317.79;14.19;111.41;0.0;63.765;39.46908;-0.341023;14.6;NaN;0.0;3.9;312.31;4 / 34;3212;2021-10-20 19:34:59:519
2.3;-7.384;-0.916;-9.6486;-0.6991;-1.5945;-2.9475;-1.5436;-3.9237;0.9347;0.8931;-0.7096;0.0;-20.59;35.89;28.01;317.79;14.19;111.41;0.0;63.765;39.46908;-0.341023;14.6;NaN;0.0;3.9;312.31;4 / 34;3263;2021-10-20 19:34:59:570
-0.023;-10.8281;-0.112;-9.6486;-0.6991;-1.5945;0.4569;1.8785;-3.906;0.9347;0.8931;-0.7096;0.0;-21.19;37.8;24.84;324.3;4.09;99.38;0.0;63.765;39.46908;-0.341023;14.6;NaN;0.0;3.9;312.31;4 / 34;3313;2021-10-20 19:34:59:620
-3.9851;-16.7741;0.2171;-9.6534;1.7286;-0.158;4.5112;7.5186;-3.4228;0.9347;0.8931;-0.7096;0.0;-22.01;39.24;21.54;324.3;4.09;99.38;0.0;63.765;39.46908;-0.341023;14.6;NaN;0.0;3.9;312.31;4 / 34;3363;2021-10-20 19:34:59:670
3.075;-18.263;-3.7601;-9.754;0.4262;-0.9481;-2.3443;6.9451;1.4352;1.4641;0.9757;0.8636;0.0;-22.01;39.24;21.54;324.3;4.09;99.38;0.0;63.765;39.46908;-0.341023;14.6;NaN;0.0;3.9;312.31;4 / 34;3412;2021-10-20 19:34:59:719
-0.624;-13.26;-6.1751;-9.5433;0.4788;-2.2075;-2.3443;6.9451;1.4352;1.4641;0.9757;0.8636;0.0;-21.19;40.91;17.21;334.72;-2.49;95.55;0.0;63.765;39.46908;-0.341023;14.6;NaN;0.0;3.9;312.31;4 / 34;3462;2021-10-20 19:34:59:769
2.936;-13.0901;-1.826;-8.9112;-2.1021;-3.5243;-3.4254;5.0859;3.7211;1.4641;0.9757;0.8636;0.0;-18.71;41.81;14.16;334.72;-2.49;95.55;0.0;57.038;39.46908;-0.341023;14.6;NaN;0.0;3.9;312.31;4 / 34;3513;2021-10-20 19:34:59:820
2.936;-13.0901;-1.826;-8.9112;-2.1021;-3.5243;-3.4254;5.0859;3.7211;0.076;1.8745;0.5946;0.0;-18.71;41.81;14.16;334.72;-2.49;95.55;0.0;57.038;39.46908;-0.341023;14.6;NaN;0.0;3.9;312.31;4 / 34;3562;2021-10-20 19:34:59:869
-2.5249;-14.6269;-1.4621;-9.6199;1.6568;-0.9577;2.719;5.0685;-0.779;-0.0069;1.5357;0.3974;0.0;-18.36;38.7;16.74;332.35;-9.72;95.69;0.0;57.038;39.46908;-0.341023;14.6;NaN;0.0;3.9;312.31;4 / 34;3612;2021-10-20 19:34:59:919
2.369;-13.459;-3.114;-9.4188;-1.6472;-2.1739;-2.1372;3.8893;0.9647;-0.0069;1.5357;0.3974;0.0;-18.36;38.7;16.74;332.35;-9.72;95.69;0.0;57.038;39.46908;-0.341023;14.6;NaN;0.0;3.9;312.31;4 / 34;3663;2021-10-20 19:34:59:970
-2.7431;-9.306;-3.6259;-9.2416;2.873;-1.5945;2.8419;-0.2925;1.6003;0.214;0.4001;0.3114;0.0;-21.11;32.04;23.21;321.5;9.67;103.0;0.0;57.038;39.46908;-0.341023;14.6;NaN;0.0;3.9;312.31;4 / 34;3712;2021-10-20 19:35:00:019
-0.524;-4.624;-1.1891;-9.2416;2.873;-1.5945;2.8419;-0.2925;1.6003;0.214;0.4001;0.3114;0.0;-22.31;20.59;31.44;321.5;9.67;103.0;0.0;57.038;39.46908;-0.341023;14.6;NaN;0.0;3.9;312.31;4 / 34;3762;2021-10-20 19:35:00:069
-0.4039;-4.883;-2.458;-1.3072;-6.6224;-7.1156;0.4188;-4.9534;-0.9511;-0.2456;-0.3387;0.2365;0.0;-22.31;20.59;31.44;321.5;9.67;103.0;0.0;62.396;39.46908;-0.341023;14.6;NaN;0.0;3.9;312.31;0 / 33;3813;2021-10-20 19:35:00:120
-0.4039;-4.883;-2.458;-9.6582;0.7997;-1.4988;0.0974;-4.6028;-0.045;-0.6505;-1.0377;0.0912;0.0;-19.86;6.3;38.59;234.53;42.47;169.59;0.0;62.396;39.46908;-0.341023;14.6;NaN;0.0;3.9;312.31;0 / 33;3863;2021-10-20 19:35:00:170
0.761;-1.371;-1.8791;-0.6225;1.7095;-9.6343;0.1099;-8.2587;-1.0166;-0.6505;-1.0377;0.0912;0.0;-15.24;-5.76;40.74;273.43;-10.04;176.3;0.0;62.396;39.46908;-0.341023;14.6;NaN;0.0;3.9;312.31;0 / 33;3913;2021-10-20 19:35:00:220
-0.421;0.239;-4.421;-0.6225;1.7095;-9.6343;0.1099;-8.2587;-1.0166;-2.342;-0.9651;-1.6739;0.0;-15.24;-5.76;40.74;273.43;-10.04;176.3;0.0;62.396;39.46908;-0.341023;14.6;NaN;0.0;3.9;312.31;0 / 33;3963;2021-10-20 19:35:00:270
0.605;-1.125;-9.129;-0.5507;0.0622;-9.7923;0.9608;-8.8181;1.2172;-4.2354;0.1709;0.4214;0.0;-10.56;-11.81;40.86;228.52;-0.36;176.78;0.0;62.396;39.46908;-0.341023;14.6;NaN;0.0;3.9;312.31;0 / 33;4012;2021-10-20 19:35:00:319
-6.711;-4.401;-11.637;-1.4844;1.6712;-9.5481;2.8458;-4.2975;8.9692;-4.2354;0.1709;0.4214;0.0;-10.56;-11.81;40.86;228.52;-0.36;176.78;0.0;62.396;39.46908;-0.341023;14.6;NaN;0.0;3.9;312.31;0 / 33;4063;2021-10-20 19:35:00:370
-2.836;-3.367;2.666;-6.45;0.0958;-7.3885;-0.2484;1.5963;0.2176;-2.6521;-0.8691;0.0708;0.0;-6.41;-12.6;41.29;228.52;-0.36;176.78;0.0;62.396;39.46908;-0.341023;14.6;NaN;0.0;3.9;312.31;0 / 33;4112;2021-10-20 19:35:00:419
-2.836;-3.367;2.666;-6.7086;0.4836;-7.1395;-0.2484;1.5963;0.2176;-2.6521;-0.8691;0.0708;0.0;-3.71;-9.36;41.89;256.48;-2.83;136.78;0.0;62.324;39.46908;-0.341023;14.6;NaN;0.0;3.9;312.31;0 / 33;4162;2021-10-20 19:35:00:469
-0.239;-10.821;-10.359;-7.2353;4.2856;-5.047;-0.1179;5.5013;2.945;-0.6237;-1.6367;-0.803;0.0;-3.71;-9.36;41.89;256.48;-2.83;136.78;0.0;62.324;39.46908;-0.341023;14.6;NaN;0.0;3.9;312.31;0 / 33;4213;2021-10-20 19:35:00:520
-2.829;-5.22;-4.413;-7.2353;4.2856;-5.047;3.0824;2.2597;-2.7794;1.0215;-1.7077;-0.9665;0.0;-5.29;0.79;41.51;284.44;-25.91;124.9;0.0;62.324;39.46908;-0.341023;14.6;NaN;0.0;3.9;312.31;0 / 33;4263;2021-10-20 19:35:00:570
-0.6979;-11.551;-4.5229;-8.5186;1.9441;-4.458;0.0681;2.6477;-3.1429;1.0215;-1.7077;-0.9665;0.0;-10.26;13.39;38.81;284.44;-25.91;124.9;0.0;62.324;39.46908;-0.341023;14.6;NaN;0.0;3.9;312.31;0 / 33;4312;2021-10-20 19:35:00:619
0.864;-11.2451;-3.427;-9.3039;-0.8859;-2.9688;0.0681;2.6477;-3.1429;1.4382;-0.7864;-0.8272;0.0;-10.26;13.39;38.81;284.44;-25.91;124.9;0.0;62.324;39.46908;-0.341023;14.6;NaN;0.0;3.9;312.31;0 / 33;4363;2021-10-20 19:35:00:670
1.2131;-9.483;-2.297;-9.5385;-1.3503;-1.8387;-2.7125;4.3515;-3.3136;1.9286;-0.0734;-1.1564;0.0;-14.29;23.4;33.36;304.19;7.91;100.91;0.0;62.324;39.46908;-0.341023;14.6;NaN;0.0;3.9;312.31;0 / 33;4413;2021-10-20 19:35:00:720
-1.668;-9.861;-1.5341;-9.6917;0.2251;-1.4796;-2.3729;1.5748;-3.3705;1.9286;-0.0734;-1.1564;0.0;-14.29;23.4;33.36;304.19;7.91;100.91;0.0;62.686;39.46908;-0.341023;14.6;NaN;0.0;3.9;312.31;0 / 33;4462;2021-10-20 19:35:00:769
-1.668;-9.861;-1.5341;-9.6295;-0.0622;-1.8579;0.4428;-0.3218;-2.6129;1.7421;0.4437;-0.7037;0.0;-15.96;29.7;27.66;304.19;7.91;100.91;0.0;62.686;39.46908;-0.341023;14.6;NaN;0.0;3.9;312.31;0 / 33;4512;2021-10-20 19:35:00:819
0.9161;-6.0821;-1.132;-9.2943;-3.1364;0.0;-2.4098;-2.0421;-3.5509;1.3265;0.7894;-0.1849;0.0;-16.01;32.7;22.74;322.24;0.36;100.92;0.0;62.686;39.46908;-0.341023;14.6;NaN;0.0;3.9;312.31;0 / 33;4563;2021-10-20 19:35:00:870
2.52;-10.11;0.114;-9.2943;-3.1364;0.0;-2.4098;-2.0421;-3.5509;1.3265;0.7894;-0.1849;0.0;-16.01;32.7;22.74;322.24;0.36;100.92;0.0;62.686;39.46908;-0.341023;14.6;NaN;0.0;3.9;312.31;0 / 33;4612;2021-10-20 19:35:00:919
-0.617;-10.7209;-2.3381;-9.6055;0.3974;-1.9249;-0.9721;1.0607;-3.3159;1.1752;0.6617;-0.3499;0.0;-15.84;35.7;18.41;329.63;-2.32;101.33;0.0;62.686;39.46908;-0.341023;14.6;NaN;0.0;3.9;312.31;0 / 33;4663;2021-10-20 19:35:00:970
0.438;-13.519;-1.627;-9.5864;0.9768;-1.8196;1.3755;3.1422;-0.2035;1.1752;0.6617;-0.3499;0.0;-15.54;37.99;13.99;335.37;-5.72;100.75;0.0;62.686;39.46908;-0.341023;14.6;NaN;0.0;3.9;312.31;0 / 33;4713;2021-10-20 19:35:01:020
-3.8749;-13.26;-1.6871;-9.8019;-0.1867;-0.2681;-1.5996;5.576;-2.0647;0.6927;1.3927;0.2376;0.0;-15.54;37.99;13.99;335.37;-5.72;100.75;0.0;60.398;39.46908;-0.341023;14.6;NaN;0.0;3.9;312.31;0 / 33;4762;2021-10-20 19:35:01:069
-3.8749;-13.26;-1.6871;-9.8019;-0.1867;-0.2681;-1.5996;5.576;-2.0647;0.4287;2.3426;0.9885;0.0;-14.76;39.11;10.39;335.37;-5.72;100.75;0.0;60.398;39.46908;-0.341023;14.6;NaN;0.0;3.9;312.31;0 / 32;4812;2021-10-20 19:35:01:119
-0.9041;-13.464;-3.3289;-9.5002;0.6369;-2.3463;2.1745;2.7022;1.7276;0.4287;2.3426;0.9885;0.0;-14.76;39.11;10.39;335.37;-5.72;100.75;0.0;60.398;39.46908;-0.341023;14.6;NaN;0.0;3.9;312.31;0 / 32;4862;2021-10-20 19:35:01:169
-3.128;-12.1999;-0.7151;-9.4858;2.4277;-0.5507;2.7999;2.5456;-1.038;0.2692;2.1974;0.8231;0.0;-13.39;37.74;10.74;339.69;-3.72;103.87;0.0;60.398;39.46908;-0.341023;14.6;NaN;0.0;3.9;312.31;0 / 32;4913;2021-10-20 19:35:01:220
-3.8891;-8.633;-1.113;-8.8825;3.9983;-1.1349;3.0307;-1.0107;-0.5287;0.3433;1.4004;1.099;0.0;-12.84;33.3;14.21;339.69;-3.72;103.87;0.0;60.398;39.46908;-0.341023;14.6;NaN;0.0;3.9;312.31;0 / 32;4962;2021-10-20 19:35:01:269
-1.5941;-9.4969;-3.552;-9.0788;1.5227;-3.3854;3.0307;-1.0107;-0.5287;0.3433;1.4004;1.099;0.0;-12.84;33.3;14.21;339.69;-3.72;103.87;0.0;60.398;39.46908;-0.341023;14.6;NaN;0.0;3.9;312.31;0 / 32;5012;2021-10-20 19:35:01:319
-3.633;-8.808;-2.613;-8.7484;3.6009;-2.5857;2.4825;-0.5966;4.1275;0.0201;0.6904;0.9607;0.0;-12.49;28.2;18.36;321.94;-8.93;110.45;0.0;60.398;39.46908;-0.341023;14.6;NaN;0.0;3.9;312.31;0 / 32;5062;2021-10-20 19:35:01:369
-3.633;-8.808;-2.613;-8.7484;3.6009;-2.5857;2.4825;-0.5966;4.1275;0.0201;0.6904;0.9607;0.0;-9.79;21.84;21.49;309.78;-21.54;106.47;0.0;60.284;39.46908;-0.341023;14.6;NaN;0.0;3.9;312.31;0 / 32;5112;2021-10-20 19:35:01:419
0.572;-6.996;-4.7869;-8.078;-0.6464;-5.5258;-2.3705;-0.9349;3.4621;-0.8576;0.2993;0.0908;0.0;-9.79;21.84;21.49;309.78;-21.54;106.47;0.0;60.284;39.46908;-0.341023;14.6;NaN;0.0;3.9;312.31;0 / 32;5162;2021-10-20 19:35:01:469
-1.148;-2.563;-3.6161;-5.4923;2.4565;-7.7428;-0.0232;-6.7035;0.9933;-1.3963;0.0751;0.0359;0.0;-6.24;14.94;22.31;315.84;-14.51;144.65;0.0;60.284;39.46908;-0.341023;14.6;NaN;0.0;3.9;312.31;0 / 32;5213;2021-10-20 19:35:01:520
0.732;-2.836;-6.814;-3.7493;-0.9529;-9.0118;-2.3159;-5.9637;2.7795;-1.3963;0.0751;0.0359;0.0;-6.24;14.94;22.31;315.84;-14.51;144.65;0.0;60.284;39.46908;-0.341023;14.6;NaN;0.0;3.9;312.31;0 / 32;5263;2021-10-20 19:35:01:570
-0.9589;-1.998;-6.984;-2.6671;1.2785;-9.3518;-2.3159;-5.9637;2.7795;-2.4614;2.1357;0.9691;0.0;-3.71;11.64;21.41;315.84;-14.51;144.65;0.0;60.284;39.46908;-0.341023;14.6;NaN;0.0;3.9;312.31;0 / 32;5313;2021-10-20 19:35:01:620
-4.224;-2.982;-7.841;-3.1029;4.4149;-8.1882;0.1344;-5.1319;1.6827;-2.1695;2.2507;2.3595;0.0;-2.94;13.14;19.31;331.9;-7.49;164.08;0.0;60.284;39.46908;-0.341023;14.6;NaN;0.0;3.9;312.31;0 / 32;5363;2021-10-20 19:35:01:670
-4.224;-2.982;-7.841;-3.1029;4.4149;-8.1882;0.1344;-5.1319;1.6827;-2.1695;2.2507;2.3595;0.0;-2.94;13.14;19.31;331.9;-7.49;164.08;0.0;63.542;39.46908;-0.341023;14.6;NaN;0.0;3.9;312.31;0 / 32;5413;2021-10-20 19:35:01:720
-4.05;-5.105;-12.1421;-3.6296;2.8826;-8.6431;2.8187;-2.2363;3.587;-1.348;0.4451;1.6939;0.0;-4.31;16.91;16.61;331.9;-7.49;164.08;0.0;63.542;39.46908;-0.341023;14.6;NaN;0.0;3.9;312.31;0 / 32;5463;2021-10-20 19:35:01:770
-3.576;-2.898;-5.0449;-4.4867;4.051;-7.7189;0.807;-2.3823;-2.7562;-0.4533;0.2826;1.6369;0.0;-7.74;22.2;13.39;329.7;-24.41;149.83;0.0;63.542;39.46908;-0.341023;14.6;NaN;0.0;3.9;312.31;0 / 32;5512;2021-10-20 19:35:01:819
0.701;-5.601;-3.2;-9.1554;-0.1963;-3.5099;-3.7346;0.673;-4.7295;-0.4533;0.2826;1.6369;0.0;-7.74;22.2;13.39;329.7;-24.41;149.83;0.0;63.542;39.46908;-0.341023;14.6;NaN;0.0;3.9;312.31;0 / 32;5562;2021-10-20 19:35:01:869
-2.2661;-11.4169;-2.6831;-8.9064;2.2889;-3.4046;-0.1724;5.7239;-3.479;0.9611;0.3673;0.4049;0.0;-15.19;27.9;8.51;329.7;-24.41;149.83;0.0;63.542;39.46908;-0.341023;14.6;NaN;0.0;3.9;312.31;0 / 32;5613;2021-10-20 19:35:01:920
-2.082;-8.612;-3.726;-8.9064;2.2889;-3.4046;-0.1724;5.7239;-3.479;0.9611;0.3673;0.4049;0.0;-15.19;27.9;8.51;329.7;-24.41;149.83;0.0;63.542;39.46908;-0.341023;14.6;NaN;0.0;3.9;312.31;0 / 32;5663;2021-10-20 19:35:01:970
1.941;-10.29;-3.391;-9.4188;0.4501;-2.6911;-0.854;2.7296;-3.566;1.7949;-0.062;-0.5551;0.0;-25.09;31.09;1.14;338.3;-13.5;110.92;0.0;61.493;39.46908;-0.341023;14.6;NaN;0.0;3.9;312.31;0 / 32;5712;2021-10-20 19:35:02:019
1.941;-10.29;-3.391;-9.1698;-2.1308;-2.7485;-4.767;3.2243;-3.0013;2.0925;0.4506;-0.9575;0.0;-31.56;30.54;-8.51;338.3;-13.5;110.92;0.0;61.493;39.46908;-0.341023;14.6;NaN;0.0;3.9;312.31;0 / 32;5762;2021-10-20 19:35:02:069
2.204;-8.976;-2.8121;-8.9783;-0.9816;-3.8211;-4.767;3.2243;-3.0013;2.0925;0.4506;-0.9575;0.0;-31.56;30.54;-8.51;338.3;-13.5;110.92;0.0;61.493;39.46908;-0.341023;14.6;NaN;0.0;3.9;312.31;0 / 32;5812;2021-10-20 19:35:02:119
1.292;-8.72;-2.1469;-9.3661;-1.9585;-2.15;-1.8738;0.4365;-2.0956;1.3954;1.6424;-0.8178;0.0;-34.31;27.24;-18.41;6.04;5.74;113.05;0.0;61.493;39.46908;-0.341023;14.6;NaN;0.0;3.9;312.31;0 / 32;5863;2021-10-20 19:35:02:170
1.85;-10.464;-1.1051;-9.596;-1.4557;-1.403;-2.0522;1.8347;-2.5086;1.0225;1.5751;-0.4459;0.0;-35.89;22.74;-25.26;34.35;8.54;98.32;0.0;61.493;39.46908;-0.341023;14.6;NaN;0.0;3.9;312.31;0 / 32;5913;2021-10-20 19:35:02:220
1.065;-9.512;-1.409;-9.596;-1.4557;-1.403;-2.0522;1.8347;-2.5086;1.0225;1.5751;-0.4459;0.0;-35.89;22.74;-25.26;34.35;8.54;98.32;0.0;61.493;39.46908;-0.341023;14.6;NaN;0.0;3.9;312.31;0 / 32;5962;2021-10-20 19:35:02:269
1.5;-9.873;-1.3571;-9.7061;-0.5555;-1.2689;-0.7004;0.5984;-2.6808;1.1457;1.1565;-0.1737;0.0;-35.89;19.44;-28.86;48.64;3.25;97.45;0.0;61.493;39.46908;-0.341023;14.6;NaN;0.0;3.9;312.31;0 / 32;6013;2021-10-20 19:35:02:320
1.5;-9.873;-1.3571;-9.5002;-2.0494;-1.3168;-1.2717;0.255;-2.2053;1.1457;1.1565;-0.1737;0.0;-35.89;19.44;-28.86;48.64;3.25;97.45;0.0;61.494;39.46908;-0.341023;14.6;NaN;0.0;3.9;312.31;0 / 32;6063;2021-10-20 19:35:02:370
1.644;-9.8711;-1.728;-9.5624;-1.4892;-1.5897;0.0112;0.8985;-0.1864;0.9441;0.8643;-0.0789;0.0;-36.06;17.51;-30.24;43.71;12.06;97.89;0.0;61.494;39.46908;-0.341023;14.6;NaN;0.0;3.9;312.31;0 / 32;6112;2021-10-20 19:35:02:419
2.63;-10.661;-1.663;-9.5624;-1.4892;-1.5897;0.0112;0.8985;-0.1864;0.5585;0.6485;-0.0628;0.0;-35.89;17.29;-28.99;43.71;12.06;97.89;0.0;61.494;39.46908;-0.341023;14.6;NaN;0.0;3.9;312.31;0 / 32;6162;2021-10-20 19:35:02:469
-1.184;-15.316;-6.297;-9.2751;-0.7805;-3.0981;-1.6752;3.048;1.0505;0.5585;0.6485;-0.0628;0.0;-35.89;17.29;-28.99;43.71;12.06;97.89;0.0;61.494;39.46908;-0.341023;14.6;NaN;0.0;3.9;312.31;0 / 32;6213;2021-10-20 19:35:02:520
-8.274;-16.221;-3.173;-9.0118;3.2944;-2.0446;6.4409;5.421;0.9675;-0.1339;0.3167;0.3175;0.0;-33.96;20.89;-23.89;66.63;-19.62;102.78;0.0;61.494;39.46908;-0.341023;14.6;NaN;0.0;3.9;312.31;0 / 32;6262;2021-10-20 19:35:02:569
2.441;-13.863;0.8471;-9.7683;0.3112;-0.8428;0.8709;5.3659;-1.1448;0.0323;-0.3209;1.0634;0.0;-31.44;26.94;-13.99;23.49;-1.82;94.93;0.0;61.494;39.46908;-0.341023;14.6;NaN;0.0;3.9;312.31;0 / 32;6312;2021-10-20 19:35:02:619
2.441;-13.863;0.8471;-9.1363;0.2394;-3.5626;0.8709;5.3659;-1.1448;0.0323;-0.3209;1.0634;0.0;-31.44;26.94;-13.99;23.49;-1.82;94.93;0.0;61.494;39.46908;-0.341023;14.6;NaN;0.0;3.9;312.31;0 / 32;6362;2021-10-20 19:35:02:669
-0.684;-8.107;-6.903;-6.8091;7.015;-0.7709;0.357;-1.4302;4.6196;0.0667;-0.8225;0.595;0.0;-29.64;31.5;-1.56;343.89;-1.4;111.3;0.0;62.307;39.46908;-0.341023;14.6;NaN;0.0;3.9;312.31;0 / 32;6412;2021-10-20 19:35:02:719
-1.4501;-3.231;-0.359;-6.8091;7.015;-0.7709;0.8541;-6.271;-2.0104;0.0667;-0.8225;0.595;0.0;-29.64;31.5;-1.56;343.89;-1.4;111.3;0.0;62.307;39.46908;-0.341023;14.6;NaN;0.0;3.9;312.31;0 / 32;6462;2021-10-20 19:35:02:769
-0.7151;-3.4579;-5.4979;-5.1811;1.063;-8.2552;0.8541;-6.271;-2.0104;-0.6181;-0.9883;-0.0067;0.0;-26.46;33.0;10.01;343.89;-1.4;111.3;0.0;62.307;39.46908;-0.341023;14.6;NaN;0.0;3.9;312.31;0 / 32;6513;2021-10-20 19:35:02:820
-0.165;-3.6019;-5.67;-5.2529;0.2394;-8.2791;-0.6517;-5.8015;1.578;-2.1156;-0.6398;0.4388;0.0;-21.54;33.0;16.56;320.05;-1.4;147.61;0.0;62.307;39.46908;-0.341023;14.6;NaN;0.0;3.9;312.31;0 / 32;6563;2021-10-20 19:35:02:870
-0.6221;-1.326;-6.264;-5.2529;0.2394;-8.2791;-0.0191;-6.7979;1.1404;-2.1156;-0.6398;0.4388;0.0;-21.54;33.0;16.56;320.05;-1.4;147.61;0.0;62.307;39.46908;-0.341023;14.6;NaN;0.0;3.9;312.31;0 / 32;6613;2021-10-20 19:35:02:920
-0.6221;-1.326;-6.264;-2.2697;0.8763;-9.505;-0.0191;-6.7979;1.1404;-2.6382;0.5994;0.4538;0.0;-17.34;32.4;18.11;327.95;-5.12;166.57;0.0;62.307;39.46908;-0.341023;14.6;NaN;0.0;3.9;312.31;0 / 32;6663;2021-10-20 19:35:02:970
-0.9379;-2.829;-10.0241;0.8045;9.7731;0.1341;-0.2917;-4.266;3.3414;-2.3796;0.7175;1.0131;0.0;-17.34;32.4;18.11;327.95;-5.12;166.57;0.0;63.737;39.46908;-0.341023;14.6;NaN;0.0;3.9;312.31;0 / 32;6712;2021-10-20 19:35:03:019
-5.172;0.227;0.7421;0.8045;9.7731;0.1341;3.6473;-6.2465;-8.3205;-2.3796;0.7175;1.0131;0.0;-13.61;31.8;16.56;54.43;-85.23;-80.54;0.0;63.737;39.46908;-0.341023;14.6;NaN;0.0;3.9;312.31;0 / 32;6762;2021-10-20 19:35:03:069
11.348;-26.229;-4.368;-7.7524;2.7821;-5.3247;3.6473;-6.2465;-8.3205;-0.5493;-0.9903;0.3284;0.0;-9.79;32.34;11.21;54.43;-85.23;-80.54;0.0;63.737;39.46908;-0.341023;14.6;NaN;0.0;3.9;312.31;0 / 32;6812;2021-10-20 19:35:03:119
-7.642;1.4741;-3.542;1.6855;8.7628;-4.0606;-6.3896;6.1601;-2.0843;0.9258;-1.0531;-0.5647;0.0;-9.79;32.34;11.21;54.43;-85.23;-80.54;0.0;63.737;39.46908;-0.341023;14.6;NaN;0.0;3.9;312.31;0 / 32;6863;2021-10-20 19:35:03:170
0.591;-17.9659;-3.217;-9.6486;-0.316;-1.7286;0.2729;-1.5857;-3.0887;0.9258;-1.0531;-0.5647;0.0;-6.96;33.0;4.91;347.96;-63.36;-157.46;0.0;63.737;39.46908;-0.341023;14.6;NaN;0.0;3.9;312.31;0 / 32;6913;2021-10-20 19:35:03:220
1.4291;-7.626;-2.017;-9.6486;-0.316;-1.7286;0.2729;-1.5857;-3.0887;2.1665;0.8256;-0.9809;0.0;-4.39;33.0;-0.79;0.48;1.85;100.16;0.0;63.737;39.46908;-0.341023;14.6;NaN;0.0;3.9;312.31;0 / 32;6963;2021-10-20 19:35:03:270
1.4291;-7.626;-2.017;-9.3326;-1.7382;-2.4708;-1.7501;2.4492;-3.1536;2.1665;0.8256;-0.9809;0.0;-4.39;33.0;-0.79;0.48;1.85;100.16;0.0;63.737;39.46908;-0.341023;14.6;NaN;0.0;3.9;312.31;0 / 32;7012;2021-10-20 19:35:03:319
-1.689;-11.5901;-2.472;-9.4954;1.3838;-2.0207;0.7897;3.3319;-2.7668;1.8171;2.557;0.2489;0.0;-2.04;32.51;-5.94;9.61;-8.11;102.01;0.0;64.466;39.46908;-0.341023;14.6;NaN;0.0;3.9;312.31;0 / 32;7062;2021-10-20 19:35:03:369
2.826;-9.294;-0.876;-9.347;-2.8347;-0.8763;0.7897;3.3319;-2.7668;1.3742;3.6132;0.6527;0.0;-2.04;32.51;-5.94;9.61;-8.11;102.01;0.0;64.466;39.46908;-0.341023;14.6;NaN;0.0;3.9;312.31;0 / 32;7112;2021-10-20 19:35:03:419
0.993;-9.062;-1.134;-9.6774;-1.0487;-1.2067;-2.1181;0.1888;-2.8828;1.3742;3.6132;0.6527;0.0;-0.36;31.39;-9.84;18.39;16.8;95.36;0.0;64.466;39.46908;-0.341023;14.6;NaN;0.0;3.9;312.31;0 / 32;7162;2021-10-20 19:35:03:469
1.548;-9.079;-2.546;-9.323;-1.5802;-2.6049;0.4469;0.3806;-1.8262;0.927;3.1494;0.5786;0.0;2.21;30.19;-13.01;23.82;6.14;97.11;0.0;64.466;39.46908;-0.341023;14.6;NaN;0.0;3.9;312.31;0 / 32;7213;2021-10-20 19:35:03:520
2.0081;-10.077;-1.201;-9.5529;-1.901;-1.1396;-2.0811;1.1473;-2.6393;0.5411;2.6261;0.4045;0.0;2.21;30.19;-13.01;23.82;6.14;97.11;0.0;64.466;39.46908;-0.341023;14.6;NaN;0.0;3.9;312.31;0 / 32;7263;2021-10-20 19:35:03:570
2.0081;-10.077;-1.201;-9.5529;-1.901;-1.1396;-2.0811;1.1473;-2.6393;0.5411;2.6261;0.4045;0.0;4.69;28.74;-15.49;29.09;11.18;96.8;0.0;64.466;39.46908;-0.341023;14.6;NaN;0.0;3.9;312.31;0 / 32;7312;2021-10-20 19:35:03:619
-0.442;-11.733;-1.8431;-9.6822;0.3591;-1.5179;0.7149;1.6195;-0.7752;0.3831;1.9221;0.388;0.0;6.54;27.3;-17.16;33.38;-2.1;98.91;0.0;58.112;39.46908;-0.341023;14.6;NaN;0.0;3.9;312.31;0 / 32;7362;2021-10-20 19:35:03:669
-0.0401;-14.3951;-1.496;-9.7588;0.0192;-1.0056;1.0926;4.9128;-0.8281;0.3831;1.9221;0.388;0.0;6.54;27.3;-17.16;33.38;-2.1;98.91;0.0;58.112;39.46908;-0.341023;14.6;NaN;0.0;3.9;312.31;0 / 32;7413;2021-10-20 19:35:03:720
-1.5529;-13.5949;-4.387;-9.2799;1.0582;-2.9928;1.0926;4.9128;-0.8281;0.4439;1.0047;0.6816;0.0;9.54;26.4;-18.11;33.38;-2.1;98.91;0.0;58.112;39.46908;-0.341023;14.6;NaN;0.0;3.9;312.31;0 / 32;7463;2021-10-20 19:35:03:770
0.624;-14.237;-4.045;-9.4284;-0.407;-2.6719;0.9772;3.7233;2.8504;0.0036;0.8136;0.6592;0.0;9.54;26.4;-18.11;33.38;-2.1;98.91;0.0;58.112;39.46908;-0.341023;14.6;NaN;0.0;3.9;312.31;0 / 32;7513;2021-10-20 19:35:03:820
-0.402;-14.562;1.484;-9.754;0.2634;0.9864;-0.3308;5.6336;0.4431;0.0036;0.8136;0.6592;0.0;12.41;27.24;-16.56;36.33;2.38;105.82;0.0;58.112;39.46908;-0.341023;14.6;NaN;0.0;3.9;312.31;0 / 32;7562;2021-10-20 19:35:03:869
-0.402;-14.562;1.484;-9.754;0.2634;0.9864;1.8561;1.597;-1.8892;0.069;1.1014;0.4396;0.0;12.96;30.49;-10.99;17.61;-1.54;84.23;0.0;58.112;39.46908;-0.341023;14.6;NaN;0.0;3.9;312.31;0 / 32;7612;2021-10-20 19:35:03:919
-1.352;-10.7419;-6.513;-8.3366;1.0487;-5.0566;1.8561;1.597;-1.8892;0.0294;0.8929;0.5924;0.0;12.96;30.49;-10.99;17.61;-1.54;84.23;0.0;58.98;39.46908;-0.341023;14.6;NaN;0.0;3.9;312.31;0 / 32;7662;2021-10-20 19:35:03:969
-1.0691;-6.661;0.8951;-9.6007;1.5323;1.2785;1.7886;-1.4547;-0.2611;0.0294;0.8929;0.5924;0.0;12.36;33.3;-3.96;17.61;-1.54;84.23;0.0;58.98;39.46908;-0.341023;14.6;NaN;0.0;3.9;312.31;0 / 32;7713;2021-10-20 19:35:04:020
-0.7579;-2.747;-2.508;-5.9089;-3.6344;-6.9288;0.2046;-6.8223;0.3892;-0.5736;-0.1444;0.8581;0.0;11.89;34.2;2.51;352.66;-8.99;82.41;0.0;58.98;39.46908;-0.341023;14.6;NaN;0.0;3.9;312.31;0 / 32;7763;2021-10-20 19:35:04:070
-0.098;-3.391;-2.092;-5.9089;-3.6344;-6.9288;0.2046;-6.8223;0.3892;-0.5188;0.6689;0.5842;0.0;11.89;34.2;2.51;352.66;-8.99;82.41;0.0;58.98;39.46908;-0.341023;14.6;NaN;0.0;3.9;312.31;0 / 32;7812;2021-10-20 19:35:04:119
-0.804;-2.872;-4.827;-4.142;2.7725;-8.4467;0.1045;-7.2704;-0.2227;-0.5188;0.6689;0.5842;0.0;13.44;33.54;7.39;352.66;-8.99;82.41;0.0;58.98;39.46908;-0.341023;14.6;NaN;0.0;3.9;312.31;0 / 32;7862;2021-10-20 19:35:04:169
-2.57;-4.5499;-7.925;-4.9656;1.1492;-8.3797;-0.0471;-4.6824;2.3101;-2.5539;0.1455;-0.0785;0.0;15.06;32.34;8.21;14.77;-6.73;149.35;0.0;58.98;39.46908;-0.341023;14.6;NaN;0.0;3.9;312.31;0 / 32;7912;2021-10-20 19:35:04:219
-2.57;-4.5499;-7.925;-5.5976;5.0661;-6.2632;-0.0471;-4.6824;2.3101;-2.5539;0.1455;-0.0785;0.0;15.06;32.34;8.21;14.77;-6.73;149.35;0.0;58.98;39.46908;-0.341023;14.6;NaN;0.0;3.9;312.31;0 / 32;7963;2021-10-20 19:35:04:270
2.276;-9.921;0.011;-6.9336;2.9449;-6.2824;8.0573;2.3417;5.9644;-2.2492;-1.4429;0.0987;0.0;14.51;33.0;5.59;11.37;-31.09;138.21;0.0;63.213;39.46908;-0.341023;14.6;NaN;0.0;3.9;312.31;0 / 32;8013;2021-10-20 19:35:04:320
2.4191;-14.369;-5.9021;-6.9336;2.9449;-6.2824;-3.9425;6.6169;0.0724;-0.4907;-0.3127;0.4419;0.0;14.51;33.0;5.59;11.37;-31.09;138.21;0.0;63.213;39.46908;-0.341023;14.6;NaN;0.0;3.9;312.31;0 / 32;8062;2021-10-20 19:35:04:369
-2.69;-8.571;-3.322;-8.8538;1.2785;-4.027;0.5375;5.7889;0.5941;-0.4907;-0.3127;0.4419;0.0;14.04;33.84;1.44;13.62;-17.47;132.18;0.0;63.213;39.46908;-0.341023;14.6;NaN;0.0;3.9;312.31;0 / 32;8113;2021-10-20 19:35:04:420
1.7831;-10.199;-2.7709;-9.505;-0.8715;-2.2649;0.5375;5.7889;0.5941;1.6782;2.5519;0.9753;0.0;14.29;33.24;-3.24;13.62;-17.47;132.18;0.0;63.213;39.46908;-0.341023;14.6;NaN;0.0;3.9;312.31;0 / 32;8162;2021-10-20 19:35:04:469
-0.4999;-8.234;-2.2811;-9.4523;0.3496;-2.5905;-2.6226;1.6993;-2.0711;1.2177;1.4165;0.128;0.0;14.29;33.24;-3.24;13.62;-17.47;132.18;0.0;63.213;39.46908;-0.341023;14.6;NaN;0.0;3.9;312.31;0 / 32;8213;2021-10-20 19:35:04:520
-0.4999;-8.234;-2.2811;-9.4858;-1.4126;-2.0494;-0.0808;-0.5768;-2.0082;1.2177;1.4165;0.128;0.0;15.24;32.21;-7.39;18.29;-2.04;105.33;0.0;63.213;39.46908;-0.341023;14.6;NaN;0.0;3.9;312.31;0 / 32;8263;2021-10-20 19:35:04:570
0.8951;-9.6319;-1.867;-9.5385;-0.3304;-2.2553;-0.9854;0.4555;-1.865;0.8707;0.7238;-0.331;0.0;16.56;30.84;-11.16;25.6;1.93;103.3;0.0;61.871;39.46908;-0.341023;14.6;NaN;0.0;3.9;312.31;0 / 32;8312;2021-10-20 19:35:04:619
-0.2561;-8.6239;-1.773;-9.5385;-0.3304;-2.2553;-0.9854;0.4555;-1.865;0.8707;0.7238;-0.331;0.0;16.56;30.84;-11.16;25.6;1.93;103.3;0.0;61.871;39.46908;-0.341023;14.6;NaN;0.0;3.9;312.31;0 / 32;8363;2021-10-20 19:35:04:670
0.0311;-9.73;-1.5791;-9.5146;0.4693;-2.3272;0.507;-0.201;-0.933;0.6461;0.048;-0.2302;0.0;17.29;29.81;-14.29;29.96;-2.74;103.74;0.0;61.871;39.46908;-0.341023;14.6;NaN;0.0;3.9;312.31;0 / 32;8412;2021-10-20 19:35:04:719
1.053;-11.247;-0.189;-9.754;-0.7901;-0.6656;-0.7749;1.3974;-2.0914;0.6128;-0.1781;-0.0531;0.0;17.29;29.81;-14.29;29.96;-2.74;103.74;0.0;61.871;39.46908;-0.341023;14.6;NaN;0.0;3.9;312.31;0 / 32;8462;2021-10-20 19:35:04:769
-0.531;-12.8719;-3.035;-9.6391;0.3735;-1.7573;-0.7749;1.3974;-2.0914;0.6128;-0.1781;-0.0531;0.0;18.41;28.39;-15.96;32.92;4.62;93.9;0.0;61.871;39.46908;-0.341023;14.6;NaN;0.0;3.9;312.31;0 / 32;8513;2021-10-20 19:35:04:820
-0.531;-12.8719;-3.035;-9.7157;-0.6704;-1.1492;0.6122;3.3464;0.6914;0.5873;-0.1137;-0.0336;0.0;19.86;26.29;-16.01;36.43;3.92;96.75;0.0;61.871;39.46908;-0.341023;14.6;NaN;0.0;3.9;312.31;0 / 32;8563;2021-10-20 19:35:04:870
-1.819;-15.048;-1.184;-9.1315;2.4134;-2.648;1.936;5.4474;-0.8771;0.3649;-0.2211;0.2226;0.0;19.86;26.29;-16.01;36.43;3.92;96.75;0.0;54.444;39.46908;-0.341023;14.6;NaN;0.0;3.9;312.31;0 / 32;8613;2021-10-20 19:35:04:920
-1.215;-13.638;-6.3;-9.1315;2.4134;-2.648;1.936;5.4474;-0.8771;0.3649;-0.2211;0.2226;0.0;20.81;25.74;-14.89;34.81;-14.24;106.17;0.0;54.444;39.46908;-0.341023;14.6;NaN;0.0;3.9;312.31;0 / 32;8663;2021-10-20 19:35:04:970
1.95;-13.598;1.79;-9.6151;-0.182;-1.9393;-0.2114;4.4713;4.29;-0.186;-0.2981;0.2566;0.0;20.89;27.79;-10.86;28.37;1.06;101.4;0.0;54.444;39.46908;-0.341023;14.6;NaN;0.0;3.9;312.31;0 / 32;8713;2021-10-20 19:35:05:020
0.081;-8.1041;-2.381;-9.7109;-1.3743;0.1149;-2.6049;2.2103;-4.9557;-0.186;-0.2981;0.2566;0.0;20.89;27.79;-10.86;28.37;1.06;101.4;0.0;54.444;39.46908;-0.341023;14.6;NaN;0.0;3.9;312.31;0 / 32;8762;2021-10-20 19:35:05:069
-0.528;-9.605;-2.582;-9.0357;0.1963;-3.802;0.1204;1.0294;2.5887;0.155;0.5928;-0.1114;0.0;19.91;30.49;-4.44;28.37;1.06;101.4;0.0;54.444;39.46908;-0.341023;14.6;NaN;0.0;3.9;312.31;0 / 32;8812;2021-10-20 19:35:05:119
-2.259;-4.7801;-1.8979;-9.0357;0.1963;-3.802;0.1204;1.0294;2.5887;0.2993;1.3944;-0.0014;0.0;19.91;30.49;-4.44;28.37;1.06;101.4;0.0;54.444;39.46908;-0.341023;14.6;NaN;0.0;3.9;312.31;0 / 32;8862;2021-10-20 19:35:05:169
-2.259;-4.7801;-1.8979;-8.3462;3.9361;-3.3136;2.1731;-4.8632;0.0436;0.2993;1.3944;-0.0014;0.0;18.79;32.34;1.56;7.99;-23.67;111.65;0.0;54.444;39.46908;-0.341023;14.6;NaN;0.0;3.9;312.31;0 / 32;8913;2021-10-20 19:35:05:220
-1.0571;-5.0239;-3.585;-7.8673;1.6472;-5.6216;0.5614;-4.518;1.3225;-0.7568;-0.1985;0.6947;0.0;19.09;32.89;6.71;8.5;-9.67;125.55;0.0;62.173;39.46908;-0.341023;14.6;NaN;0.0;3.9;312.31;0 / 32;8963;2021-10-20 19:35:05:270
0.234;-4.4561;-3.7931;-7.4651;-0.3879;-6.3446;0.5614;-4.518;1.3225;-1.301;-0.5361;0.4018;0.0;19.09;32.89;6.71;8.5;-9.67;125.55;0.0;62.173;39.46908;-0.341023;14.6;NaN;0.0;3.9;312.31;0 / 32;9013;2021-10-20 19:35:05:320
-1.146;-4.658;-7.887;-4.9368;1.2163;-8.3845;-1.2985;-5.5654;1.1927;-1.301;-0.5361;0.4018;0.0;19.86;32.64;8.76;10.74;2.27;130.36;0.0;62.173;39.46908;-0.341023;14.6;NaN;0.0;3.9;312.31;0 / 32;9063;2021-10-20 19:35:05:370
0.461;-8.121;-0.366;-9.7827;-0.5411;-0.4262;2.3071;-0.7654;5.8227;-2.1124;-0.518;-0.3171;0.0;19.56;32.7;7.39;349.11;3.16;92.49;0.0;62.173;39.46908;-0.341023;14.6;NaN;0.0;3.9;312.31;0 / 32;9112;2021-10-20 19:35:05:419
-2.2609;-13.887;-9.66;-7.9775;1.2977;-5.5498;3.1472;3.0582;3.7406;-0.5588;-0.0704;0.2856;0.0;19.56;32.7;7.39;349.11;3.16;92.49;0.0;62.173;39.46908;-0.341023;14.6;NaN;0.0;3.9;312.31;0 / 32;9164;2021-10-20 19:35:05:471
-2.2609;-13.887;-9.66;-7.9775;1.2977;-5.5498;3.1472;3.0582;3.7406;-0.5588;-0.0704;0.2856;0.0;18.54;33.6;4.09;11.85;-7.61;124.83;0.0;62.173;39.46908;-0.341023;14.6;NaN;0.0;3.9;312.31;0 / 32;9212;2021-10-20 19:35:05:519
-1.443;-7.6399;-4.164;-8.4994;1.5945;-4.6304;0.3778;-0.8934;-0.5848;0.8748;1.6613;0.6236;0.0;18.54;33.6;4.09;11.85;-7.61;124.83;0.0;61.574;39.46908;-0.341023;14.6;NaN;0.0;3.9;312.31;0 / 32;9263;2021-10-20 19:35:05:570
0.6941;-11.027;-3.2021;-9.3996;-0.5794;-2.7294;0.3778;-0.8934;-0.5848;0.8748;1.6613;0.6236;0.0;19.09;33.6;0.06;11.85;-7.61;124.83;0.0;61.574;39.46908;-0.341023;14.6;NaN;0.0;3.9;312.31;0 / 32;9313;2021-10-20 19:35:05:620
0.923;-9.845;-2.151;-9.5433;-0.8859;-2.0734;-0.3401;2.3117;-0.8283;0.7365;0.8154;-0.054;0.0;20.51;32.59;-2.94;13.38;5.18;102.26;0.0;61.574;39.46908;-0.341023;14.6;NaN;0.0;3.9;312.31;0 / 32;9363;2021-10-20 19:35:05:670
1.586;-9.38;-1.1629;-9.6007;-1.6185;-1.1875;-2.0848;0.5789;-2.219;0.868;0.6225;-0.2045;0.0;20.51;32.59;-2.94;13.38;5.18;102.26;0.0;61.574;39.46908;-0.341023;14.6;NaN;0.0;3.9;312.31;0 / 32;9412;2021-10-20 19:35:05:719
-1.268;-7.98;-1.491;-9.5241;1.5131;-1.7765;-2.0848;0.5789;-2.219;0.868;0.6225;-0.2045;0.0;21.49;31.91;-5.51;16.81;9.5;97.05;0.0;61.574;39.46908;-0.341023;14.6;NaN;0.0;3.9;312.31;0 / 32;9463;2021-10-20 19:35:05:770
-1.268;-7.98;-1.491;-9.5241;1.5131;-1.7765;1.1791;-1.325;-1.6465;0.8503;0.4436;-0.1588;0.0;21.66;31.2;-8.59;20.91;-8.88;100.57;0.0;61.574;39.46908;-0.341023;14.6;NaN;0.0;3.9;312.31;0 / 32;9513;2021-10-20 19:35:05:820
0.2531;-9.864;-1.014;-9.754;-0.2442;-0.996;0.561;0.706;-1.8712;0.7158;0.0894;-0.0582;0.0;21.66;31.2;-8.59;20.91;-8.88;100.57;0.0;57.47;39.46908;-0.341023;14.6;NaN;0.0;3.9;312.31;0 / 32;9562;2021-10-20 19:35:05:869
0.078;-10.347;0.023;-9.8066;-0.0622;0.0144;0.561;0.706;-1.8712;0.7158;0.0894;-0.0582;0.0;21.71;29.64;-11.29;20.91;-8.88;100.57;0.0;57.47;39.46908;-0.341023;14.6;NaN;0.0;3.9;312.31;0 / 32;9613;2021-10-20 19:35:05:920
0.5261;-12.4151;-1.1081;-9.7588;-0.407;-0.8667;0.2261;1.9685;-2.1368;0.7414;-0.138;0.0412;0.0;21.71;29.64;-11.29;20.91;-8.88;100.57;0.0;57.47;39.46908;-0.341023;14.6;NaN;0.0;3.9;312.31;0 / 32;9663;2021-10-20 19:35:05:970
-0.478;-14.0209;-2.2691;-9.6774;0.3304;-1.561;-1.618;3.275;-0.366;0.7414;-0.138;0.0412;0.0;23.04;27.84;-12.71;28.96;2.38;95.08;0.0;57.47;39.46908;-0.341023;14.6;NaN;0.0;3.9;312.31;0 / 32;9712;2021-10-20 19:35:06:019
-0.6049;-12.6911;-5.5931;-8.9687;0.4214;-3.9504;2.0584;3.5726;2.6834;0.4291;-0.294;-0.1328;0.0;24.66;27.0;-13.56;32.69;-1.93;99.16;0.0;57.47;39.46908;-0.341023;14.6;NaN;0.0;3.9;312.31;0 / 32;9763;2021-10-20 19:35:06:070
-0.6049;-12.6911;-5.5931;-8.9687;0.4214;-3.9504;2.0584;3.5726;2.6834;-0.3701;-0.7253;-0.055;0.0;24.66;27.0;-13.56;32.69;-1.93;99.16;0.0;57.47;39.46908;-0.341023;14.6;NaN;0.0;3.9;312.31;0 / 32;9813;2021-10-20 19:35:06:120
-2.1731;-14.85;-4.7149;-9.2608;1.3503;-2.9401;1.497;4.491;3.0818;-0.3701;-0.7253;-0.055;0.0;25.86;27.6;-12.06;32.21;-7.91;107.61;0.0;57.47;39.46908;-0.341023;14.6;NaN;0.0;3.9;312.31;0 / 32;9862;2021-10-20 19:35:06:169
1.589;-13.995;2.948;-9.5385;-1.0774;2.0063;0.108;5.134;-2.8554;-0.4179;-0.6264;0.2151;0.0;25.99;29.34;-6.54;32.21;-7.91;107.61;0.0;54.903;39.46908;-0.341023;14.6;NaN;0.0;3.9;312.31;0 / 32;9913;2021-10-20 19:35:06:220
-1.1959;-9.1339;-5.9839;-8.1546;1.0582;-5.3439;-2.0936;-0.3562;1.6816;0.1368;0.4477;-0.0619;0.0;25.99;29.34;-6.54;32.21;-7.91;107.61;0.0;54.903;39.46908;-0.341023;14.6;NaN;0.0;3.9;312.31;0 / 32;9963;2021-10-20 19:35:06:270
-4.205;-5.23;0.773;-7.5944;6.1052;1.1109;-2.0936;-0.3562;1.6816;0.1368;0.4477;-0.0619;0.0;25.09;31.2;0.11;22.5;-6.19;123.24;0.0;54.903;39.46908;-0.341023;14.6;NaN;0.0;3.9;312.31;0 / 32;10012;2021-10-20 19:35:06:319
-0.177;-6.302;-4.794;-7.8099;0.2011;-5.9328;3.8964;-4.4181;-2.5666;0.0487;0.7347;0.7014;0.0;25.09;31.2;0.11;22.5;-6.19;123.24;0.0;54.903;39.46908;-0.341023;14.6;NaN;0.0;3.9;312.31;0 / 32;10062;2021-10-20 19:35:06:369
-0.177;-6.302;-4.794;-7.8099;0.2011;-5.9328;-0.6117;-4.8942;0.5955;0.0487;0.7347;0.7014;0.0;25.26;31.44;4.69;19.5;-1.17;127.22;0.0;54.903;39.46908;-0.341023;14.6;NaN;0.0;3.9;312.31;0 / 32;10113;2021-10-20 19:35:06:420
-1.5941;-3.03;-2.613;-6.9049;3.6392;-5.9424;-0.3217;-5.4714;0.6998;-1.0065;-0.7836;1.026;0.0;27.24;29.1;7.86;19.5;-1.17;127.22;0.0;54.903;39.46908;-0.341023;14.6;NaN;0.0;3.9;312.31;0 / 32;10163;2021-10-20 19:35:06:470
-0.701;-3.738;-3.798;-5.3391;2.2553;-7.9104;-0.3217;-5.4714;0.6998;-1.7179;-0.0257;-0.1037;0.0;27.24;29.1;7.86;19.5;-1.17;127.22;0.0;62.715;39.46908;-0.341023;14.6;NaN;0.0;3.9;312.31;0 / 32;10213;2021-10-20 19:35:06:520
-2.491;-3.334;-7.53;-4.9752;3.1603;-7.8386;-0.3709;-6.1959;0.314;-1.7179;-0.0257;-0.1037;0.0;28.91;27.19;8.94;30.92;-13.3;145.98;0.0;62.715;39.46908;-0.341023;14.6;NaN;0.0;3.9;312.31;0 / 32;10263;2021-10-20 19:35:06:570
5.438;-11.144;-4.4561;-4.9752;3.1603;-7.8386;5.034;2.8403;7.6554;-2.4534;-0.8387;-0.1415;0.0;29.34;27.71;8.21;30.92;-13.3;145.98;0.0;62.715;39.46908;-0.341023;14.6;NaN;0.0;3.9;312.31;0 / 32;10313;2021-10-20 19:35:06:620
5.438;-11.144;-4.4561;-9.7827;-0.5171;-0.4788;-2.3178;2.8277;-5.2024;-0.3809;0.788;0.3911;0.0;29.34;27.71;8.21;30.92;-13.3;145.98;0.0;62.715;39.46908;-0.341023;14.6;NaN;0.0;3.9;312.31;0 / 32;10363;2021-10-20 19:35:06:670
-3.5209;-6.9551;-3.7241;-9.4332;-2.2697;1.4269;-4.2676;2.2753;-7.2462;-0.3809;0.788;0.3911;0.0;29.04;29.59;6.71;348.9;3.02;92.8;0.0;62.715;39.46908;-0.341023;14.6;NaN;0.0;3.9;312.31;0 / 32;10413;2021-10-20 19:35:06:720
-0.067;-13.1719;-4.902;-9.7205;-0.1676;-1.2881;-4.2676;2.2753;-7.2462;1.1836;1.6148;0.7219;0.0;29.04;29.59;6.71;348.9;3.02;92.8;0.0;62.715;39.46908;-0.341023;14.6;NaN;0.0;3.9;312.31;0 / 32;10463;2021-10-20 19:35:06:770
0.2051;-8.5811;-3.576;-9.2273;0.747;-3.237;-2.2758;1.2799;-3.0097;1.1836;1.6148;0.7219;0.0;28.99;30.84;4.01;359.71;0.98;97.55;0.0;63.23;39.46908;-0.341023;14.6;NaN;0.0;3.9;312.31;0 / 32;10512;2021-10-20 19:35:06:819
0.995;-9.737;-1.977;-9.2273;0.747;-3.237;-0.6224;0.1278;-1.7839;1.1836;1.6148;0.7219;0.0;28.91;31.14;2.34;359.71;0.98;97.55;0.0;63.23;39.46908;-0.341023;14.6;NaN;0.0;3.9;312.31;0 / 32;10562;2021-10-20 19:35:06:869
2.9801;-9.713;-1.6819;-9.6007;-0.4214;-1.9489;-1.8735;1.0848;-1.3784;1.1858;1.2463;-0.2788;0.0;28.91;31.14;2.34;359.71;0.98;97.55;0.0;63.23;39.46908;-0.341023;14.6;NaN;0.0;3.9;312.31;0 / 32;10613;2021-10-20 19:35:06:920
2.9801;-9.713;-1.6819;-9.1794;-3.304;-1.0056;-1.8735;1.0848;-1.3784;1.1858;1.2463;-0.2788;0.0;29.76;30.49;1.09;9.86;2.46;101.47;0.0;63.23;39.46908;-0.341023;14.6;NaN;0.0;3.9;312.31;0 / 32;10663;2021-10-20 19:35:06:970
1.038;-8.641;-1.44;-9.6582;0.498;-1.6233;-1.0218;-0.5525;-1.9984;0.8415;0.8481;-0.4564;0.0;30.79;29.89;-0.24;9.86;2.46;101.47;0.0;63.23;39.46908;-0.341023;14.6;NaN;0.0;3.9;312.31;0 / 32;10713;2021-10-20 19:35:07:020
0.299;-9.7729;-1.098;-9.6582;0.498;-1.6233;0.1503;0.4429;-1.9211;0.8415;0.8481;-0.4564;0.0;30.79;29.89;-0.24;9.86;2.46;101.47;0.0;63.23;39.46908;-0.341023;14.6;NaN;0.0;3.9;312.31;0 / 32;10763;2021-10-20 19:35:07:070
0.696;-9.0979;0.09;-9.7827;-0.4836;-0.4693;-0.3732;-0.3692;-2.4483;0.8415;0.8481;-0.4564;0.0;30.54;29.64;-1.69;6.98;2.83;92.75;0.0;63.23;39.46908;-0.341023;14.6;NaN;0.0;3.9;312.31;0 / 32;10813;2021-10-20 19:35:07:120
0.0401;-10.68;0.581;-9.754;-0.9816;0.2969;-0.3732;-0.3692;-2.4483;0.8415;0.8481;-0.4564;0.0;30.54;29.64;-1.69;6.98;2.83;92.75;0.0;58.856;39.46908;-0.341023;14.6;NaN;0.0;3.9;312.31;0 / 32;10862;2021-10-20 19:35:07:169
-0.15;-11.276;-0.7181;-9.7875;0.1293;-0.6177;0.9754;1.7234;-1.5495;0.8382;0.3564;0.1394;0.0;30.79;29.1;-2.89;4.57;5.74;88.26;0.0;58.856;39.46908;-0.341023;14.6;NaN;0.0;3.9;312.31;0 / 32;10912;2021-10-20 19:35:07:219
-0.15;-11.276;-0.7181;-9.7875;0.1293;-0.6177;0.4985;1.888;-0.974;0.8382;0.3564;0.1394;0.0;31.91;28.31;-3.24;4.57;5.74;88.26;0.0;58.856;39.46908;-0.341023;14.6;NaN;0.0;3.9;312.31;0 / 32;10962;2021-10-20 19:35:07:269
1.728;-14.292;-0.8299;-9.7205;-1.1684;-0.5555;0.4985;1.888;-0.974;0.5114;0.0631;0.1253;0.0;31.91;28.31;-3.24;4.57;5.74;88.26;0.0;58.856;39.46908;-0.341023;14.6;NaN;0.0;3.9;312.31;0 / 32;11013;2021-10-20 19:35:07:320
-0.7061;-13.4801;-1.1081;-9.7588;0.5028;-0.7997;-1.8741;3.2437;0.2206;0.5114;0.0631;0.1253;0.0;33.19;26.81;-3.71;13.13;-2.94;94.68;0.0;58.856;39.46908;-0.341023;14.6;NaN;0.0;3.9;312.31;0 / 32;11063;2021-10-20 19:35:07:370
-0.0469;-12.016;-2.486;-9.6055;0.0335;-1.9824;0.4037;2.2659;1.4642;0.1466;-0.1589;0.0902;0.0;33.96;26.64;-3.06;13.13;-2.94;94.68;0.0;58.856;39.46908;-0.341023;14.6;NaN;0.0;3.9;312.31;0 / 32;11113;2021-10-20 19:35:07:420
-2.214;-12.899;-1.136;-9.6295;1.6472;-0.8428;0.4037;2.2659;1.4642;-0.1697;-0.3234;0.1713;0.0;33.96;26.64;-3.06;13.13;-2.94;94.68;0.0;58.856;39.46908;-0.341023;14.6;NaN;0.0;3.9;312.31;0 / 32;11163;2021-10-20 19:35:07:470
-0.593;-9.263;0.411;-9.7779;0.6177;0.431;2.5202;2.4924;-2.2538;-0.1697;-0.3234;0.1713;0.0;32.89;28.01;-0.66;6.67;-9.67;95.0;0.0;55.511;39.46908;-0.341023;14.6;NaN;0.0;3.9;312.31;0 / 32;11213;2021-10-20 19:35:07:520
-3.829;-9.447;-4.614;-8.2791;3.3567;-4.0414;1.28;-0.4481;2.1821;0.165;0.0127;0.3902;0.0;32.89;28.01;-0.66;6.67;-9.67;95.0;0.0;55.511;39.46908;-0.341023;14.6;NaN;0.0;3.9;312.31;0 / 32;11263;2021-10-20 19:35:07:570
-3.829;-9.447;-4.614;-8.2791;3.3567;-4.0414;1.28;-0.4481;2.1821;0.0617;0.2089;0.8338;0.0;30.06;28.91;2.16;17.17;-20.02;116.02;0.0;55.511;39.46908;-0.341023;14.6;NaN;0.0;3.9;312.31;0 / 32;11312;2021-10-20 19:35:07:619
-1.555;-8.961;-1.6541;-9.505;1.6472;-1.7526;0.7933;-1.5353;-0.2689;0.0617;0.2089;0.8338;0.0;25.99;28.31;2.46;4.91;-9.67;100.45;0.0;55.511;39.46908;-0.341023;14.6;NaN;0.0;3.9;312.31;0 / 32;11363;2021-10-20 19:35:07:670
-1.8979;-7.03;-1.3301;-9.3182;2.5091;-1.7526;1.7514;-2.2217;0.5666;-0.6155;-0.444;0.7396;0.0;25.99;28.31;2.46;4.91;-9.67;100.45;0.0;55.511;39.46908;-0.341023;14.6;NaN;0.0;3.9;312.31;0 / 32;11412;2021-10-20 19:35:07:719
-0.485;-4.8589;0.057;-9.7588;0.9577;0.1101;-1.0961;-4.732;-1.4343;0.1953;0.3853;0.4639;0.0;22.01;25.91;2.29;3.91;-14.82;100.65;0.0;55.511;39.46908;-0.341023;14.6;NaN;0.0;3.9;312.31;0 / 32;11464;2021-10-20 19:35:07:771
-0.4609;-5.6081;-1.0219;-9.6151;0.7709;-1.7573;-1.0961;-4.732;-1.4343;0.1953;0.3853;0.4639;0.0;19.01;23.1;4.31;3.91;-14.82;100.65;0.0;56.209;39.46908;-0.341023;14.6;NaN;0.0;3.9;312.31;0 / 32;11512;2021-10-20 19:35:07:819
-1.479;-6.0169;-3.432;-8.3366;2.0399;-4.7453;-1.0064;-3.8914;-0.2404;0.2824;0.6212;-0.0829;0.0;19.01;23.1;4.31;3.91;-14.82;100.65;0.0;56.209;39.46908;-0.341023;14.6;NaN;0.0;3.9;312.31;0 / 32;11562;2021-10-20 19:35:07:869
-1.479;-6.0169;-3.432;-8.3366;2.0399;-4.7453;-1.0064;-3.8914;-0.2404;0.2824;0.6212;-0.0829;0.0;17.04;20.7;5.76;7.51;-12.01;119.65;0.0;56.209;39.46908;-0.341023;14.6;NaN;0.0;3.9;312.31;0 / 32;11613;2021-10-20 19:35:07:920
-0.9829;-13.301;-9.193;-8.0541;0.5938;-5.5641;-0.3966;-0.9592;4.2044;-1.2083;-0.7472;-0.4407;0.0;17.04;20.7;5.76;7.51;-12.01;119.65;0.0;56.209;39.46908;-0.341023;14.6;NaN;0.0;3.9;312.31;0 / 32;11662;2021-10-20 19:35:07:969
3.075;-12.2411;-9.447;-7.6183;-1.9106;-5.8802;-3.9926;2.8794;6.6362;-1.7792;-0.6377;-1.125;0.0;16.74;19.5;5.51;12.67;-3.47;124.64;0.0;56.209;39.46908;-0.341023;14.6;NaN;0.0;3.9;312.31;0 / 32;11712;2021-10-20 19:35:08:019
-2.115;-9.603;5.735;-8.2744;1.8196;4.9416;-3.9926;2.8794;6.6362;-1.7792;-0.6377;-1.125;0.0;16.09;18.84;7.56;323.62;-10.69;59.15;0.0;56.209;39.46908;-0.341023;14.6;NaN;0.0;3.9;312.31;0 / 32;11763;2021-10-20 19:35:08:070
-4.1021;-8.291;-0.552;-8.2744;1.8196;4.9416;1.6244;0.3659;-8.9933;-0.1765;0.671;-0.1489;0.0;16.09;18.84;7.56;323.62;-10.69;59.15;0.0;56.209;39.46908;-0.341023;14.6;NaN;0.0;3.9;312.31;0 / 32;11813;2021-10-20 19:35:08:120
4.172;-12.71;1.0121;-5.1092;-0.9242;8.3175;-1.5156;-3.9802;-11.693;-0.1765;0.671;-0.1489;0.0;12.79;19.61;11.64;323.62;-10.69;59.15;0.0;60.803;39.46908;-0.341023;14.6;NaN;0.0;3.9;312.31;0 / 32;11863;2021-10-20 19:35:08:170
4.172;-12.71;1.0121;-8.4994;-4.7453;1.2115;-6.5829;1.3954;-3.4712;2.3983;3.9331;1.0927;0.0;12.79;19.61;11.64;323.62;-10.69;59.15;0.0;60.803;39.46908;-0.341023;14.6;NaN;0.0;3.9;312.31;0 / 32;11912;2021-10-20 19:35:08:219
-3.0371;-10.836;-2.027;-9.1985;2.9113;-1.7478;-6.5829;1.3954;-3.4712;1.2132;3.0279;0.0708;0.0;10.14;21.11;13.44;315.39;28.93;81.89;0.0;60.803;39.46908;-0.341023;14.6;NaN;0.0;3.9;312.31;0 / 32;11962;2021-10-20 19:35:08:269
2.01;-9.371;1.443;-9.2895;-2.4181;2.0016;2.9994;0.1765;0.6273;1.2132;3.0279;0.0708;0.0;7.26;22.09;14.89;330.65;-17.27;100.76;0.0;60.803;39.46908;-0.341023;14.6;NaN;0.0;3.9;312.31;0 / 32;12012;2021-10-20 19:35:08:319
1.5431;-10.029;0.038;-9.2895;-2.4181;2.0016;-2.2117;-0.0455;-2.8756;0.4346;2.2802;-0.4357;0.0;7.26;22.09;14.89;330.65;-17.27;100.76;0.0;60.803;39.46908;-0.341023;14.6;NaN;0.0;3.9;312.31;0 / 32;12062;2021-10-20 19:35:08:369
1.206;-10.0579;0.2321;-9.6869;-1.3024;-0.7709;-0.9821;0.0525;-0.4897;0.2463;2.364;-0.2082;0.0;3.24;23.04;17.16;323.06;7.63;94.55;0.0;60.803;39.46908;-0.341023;14.6;NaN;0.0;3.9;312.31;0 / 32;12113;2021-10-20 19:35:08:420
0.3851;-9.531;-0.026;-9.8019;-0.2681;-0.0144;1.3703;-0.3005;-0.1673;0.2463;2.364;-0.2082;0.0;0.71;23.7;18.41;323.09;1.57;90.08;0.0;60.258;39.46908;-0.341023;14.6;NaN;0.0;3.9;312.31;0 / 32;12163;2021-10-20 19:35:08:470
0.3851;-9.531;-0.026;-9.5624;-2.0399;0.7757;1.3703;-0.3005;-0.1673;-0.0568;2.4188;-0.0593;0.0;0.71;23.7;18.41;323.09;1.57;90.08;0.0;60.258;39.46908;-0.341023;14.6;NaN;0.0;3.9;312.31;0 / 32;12212;2021-10-20 19:35:08:519
2.81;-11.877;-0.813;-9.6199;-1.2785;-1.403;-1.9809;1.4462;-1.0037;-0.1684;2.1077;-0.12;0.0;-1.69;24.84;19.14;323.3;12.0;85.36;0.0;60.258;39.46908;-0.341023;14.6;NaN;0.0;3.9;312.31;0 / 32;12262;2021-10-20 19:35:08:569
0.8681;-13.191;-2.8309;-9.572;-0.9912;-1.8914;0.1219;3.4295;2.5969;-0.1684;2.1077;-0.12;0.0;-1.69;24.84;19.14;323.3;12.0;85.36;0.0;60.258;39.46908;-0.341023;14.6;NaN;0.0;3.9;312.31;0 / 32;12313;2021-10-20 19:35:08:620
-1.61;-13.002;-3.966;-8.5473;3.7733;-2.9832;2.5725;3.2499;3.4205;-0.7424;1.8059;0.0249;0.0;-4.26;25.01;20.81;319.3;5.8;101.18;0.0;60.258;39.46908;-0.341023;14.6;NaN;0.0;3.9;312.31;0 / 32;12363;2021-10-20 19:35:08:670
-9.4759;-12.202;-1.464;-8.5473;3.7733;-2.9832;2.5725;3.2499;3.4205;-0.7424;1.8059;0.0249;0.0;-7.26;22.69;25.01;310.15;-22.63;109.24;0.0;60.258;39.46908;-0.341023;14.6;NaN;0.0;3.9;312.31;0 / 32;12412;2021-10-20 19:35:08:719
5.6411;-13.7561;1.472;-9.414;2.7007;0.5507;9.7994;2.4262;0.6066;-0.4887;3.8595;1.837;0.0;-7.26;22.69;25.01;310.15;-22.63;109.24;0.0;59.087;39.46908;-0.341023;14.6;NaN;0.0;3.9;312.31;0 / 32;12462;2021-10-20 19:35:08:769
-1.077;-11.309;-8.052;-8.8825;0.182;-4.1468;-2.8236;3.1102;1.1405;0.2273;1.9716;0.8591;0.0;-10.01;16.14;30.96;310.15;-22.63;109.24;0.0;59.087;39.46908;-0.341023;14.6;NaN;0.0;3.9;312.31;0 / 32;12513;2021-10-20 19:35:08:820
-1.077;-11.309;-8.052;-7.0437;6.3686;-2.4517;-2.8236;3.1102;1.1405;0.2273;1.9716;0.8591;0.0;-12.19;6.9;35.04;280.88;-1.06;115.03;0.0;59.087;39.46908;-0.341023;14.6;NaN;0.0;3.9;312.31;0 / 32;12562;2021-10-20 19:35:08:869
-3.0971;-3.396;-0.253;-7.3646;1.8675;-6.201;3.2081;-5.4664;0.4412;-0.4408;1.0409;-0.0693;0.0;-12.19;6.9;35.04;280.88;-1.06;115.03;0.0;59.087;39.46908;-0.341023;14.6;NaN;0.0;3.9;312.31;0 / 32;12612;2021-10-20 19:35:08:919
-0.488;-4.421;-5.6479;-7.3646;1.8675;-6.201;-0.5524;-5.1352;3.6532;-1.6555;1.2667;1.3738;0.0;-14.94;-0.36;36.96;273.55;-10.98;130.1;0.0;59.087;39.46908;-0.341023;14.6;NaN;0.0;3.9;312.31;0 / 32;12663;2021-10-20 19:35:08:970
0.744;-4.5829;-5.462;-6.2106;-1.8052;-7.3694;-2.2181;-4.5978;2.3302;-1.6555;1.2667;1.3738;0.0;-17.64;-4.91;37.61;258.0;10.61;139.88;0.0;59.087;39.46908;-0.341023;14.6;NaN;0.0;3.9;312.31;0 / 32;12713;2021-10-20 19:35:09:020
-1.859;-2.858;-7.006;-3.5243;1.4509;-9.0357;-2.2181;-4.5978;2.3302;-2.1834;1.0044;0.2953;0.0;-17.64;-4.91;37.61;258.0;10.61;139.88;0.0;59.087;39.46908;-0.341023;14.6;NaN;0.0;3.9;312.31;0 / 32;12762;2021-10-20 19:35:09:069
-2.072;-4.684;-8.585;-3.9313;2.4086;-8.6526;0.6791;-5.1752;2.0292;-2.3869;1.082;0.5394;0.0;-18.41;-6.49;37.86;258.0;10.61;139.88;0.0;64.689;39.46908;-0.341023;14.6;NaN;0.0;3.9;312.31;0 / 32;12812;2021-10-20 19:35:09:119
-2.072;-4.684;-8.585;-3.7445;1.6185;-8.9208;1.0498;-1.5111;5.7712;-2.3869;1.082;0.5394;0.0;-18.49;-6.0;38.29;271.52;-14.22;155.57;0.0;64.689;39.46908;-0.341023;14.6;NaN;0.0;3.9;312.31;0 / 32;12863;2021-10-20 19:35:09:170
-2.6471;-4.8919;-9.998;-3.7445;1.6185;-8.9208;1.0498;-1.5111;5.7712;-2.0025;0.7646;1.3289;0.0;-18.49;-6.0;38.29;271.52;-14.22;155.57;0.0;64.689;39.46908;-0.341023;14.6;NaN;0.0;3.9;312.31;0 / 32;12913;2021-10-20 19:35:09:220
-4.899;-5.684;-7.544;-5.1475;1.8579;-8.1403;3.1521;-0.8612;0.435;-2.0025;0.7646;1.3289;0.0;-18.96;-4.91;38.34;268.82;-10.92;147.69;0.0;64.689;39.46908;-0.341023;14.6;NaN;0.0;3.9;312.31;0 / 32;12963;2021-10-20 19:35:09:270
0.579;-9.885;-3.267;-9.4619;1.47;-2.1213;-2.4795;3.5448;-3.988;-2.0025;0.7646;1.3289;0.0;-18.96;-4.91;38.34;268.82;-10.92;147.69;0.0;64.689;39.46908;-0.341023;14.6;NaN;0.0;3.9;312.31;0 / 32;13013;2021-10-20 19:35:09:320
-0.885;-17.013;-6.063;-9.2273;0.4741;-3.2896;-0.954;10.0719;-0.6229;-2.0025;0.7646;1.3289;0.0;-20.21;-0.66;37.56;266.32;-8.62;102.64;0.0;64.689;39.46908;-0.341023;14.6;NaN;0.0;3.9;312.31;0 / 32;13063;2021-10-20 19:35:09:370
-3.047;-8.5279;-2.951;-9.2273;0.4741;-3.2896;-0.954;10.0719;-0.6229;-2.0025;0.7646;1.3289;0.0;-23.94;7.2;34.86;266.32;-8.62;102.64;0.0;61.335;39.46908;-0.341023;14.6;NaN;0.0;3.9;312.31;0 / 32;13112;2021-10-20 19:35:09:419
-3.047;-8.5279;-2.951;-8.7867;3.1316;-3.0311;1.4001;0.84;-2.924;-2.0025;0.7646;1.3289;0.0;-23.94;7.2;34.86;266.32;-8.62;102.64;0.0;61.335;39.46908;-0.341023;14.6;NaN;0.0;3.9;312.31;0 / 32;13162;2021-10-20 19:35:09:469
2.0651;-10.7539;-1.213;-9.1985;-3.0885;-1.4269;1.4001;0.84;-2.924;-2.0025;0.7646;1.3289;0.0;-27.84;15.24;30.79;283.17;-18.62;109.03;0.0;61.335;39.46908;-0.341023;14.6;NaN;0.0;3.9;312.31;0 / 32;13212;2021-10-20 19:35:09:519
3.9251;-8.0089;-1.448;-9.2608;-2.1452;-2.4086;-5.6588;-0.2058;-3.2199;1.5265;0.6299;-0.3553;0.0;-31.01;20.94;25.86;283.17;-18.62;109.03;0.0;61.335;39.46908;-0.341023;14.6;NaN;0.0;3.9;312.31;0 / 32;13263;2021-10-20 19:35:09:570
0.117;-8.904;-1.6459;-9.2608;-2.1452;-2.4086;-0.1775;-0.1696;-2.1092;1.4746;0.7855;-0.8767;0.0;-31.01;20.94;25.86;283.17;-18.62;109.03;0.0;61.335;39.46908;-0.341023;14.6;NaN;0.0;3.9;312.31;0 / 32;13313;2021-10-20 19:35:09:620
0.7631;-9.069;-1.816;-9.2943;0.6608;-3.0598;-0.1775;-0.1696;-2.1092;1.4746;0.7855;-0.8767;0.0;-33.41;24.84;20.81;316.55;12.64;104.58;0.0;61.335;39.46908;-0.341023;14.6;NaN;0.0;3.9;312.31;0 / 32;13363;2021-10-20 19:35:09:670
2.685;-10.23;-0.4061;-9.2943;0.6608;-3.0598;-0.2878;-0.1548;-1.5169;0.5405;1.3723;-0.1998;0.0;-33.41;24.84;20.81;316.55;12.64;104.58;0.0;60.31;39.46908;-0.341023;14.6;NaN;0.0;3.9;312.31;0 / 32;13413;2021-10-20 19:35:09:720
2.685;-10.23;-0.4061;-9.481;-2.4852;-0.3639;-2.0056;0.9165;-2.6034;0.5046;1.5323;0.2254;0.0;-33.96;27.49;16.44;314.18;-3.86;108.22;0.0;60.31;39.46908;-0.341023;14.6;NaN;0.0;3.9;312.31;0 / 32;13463;2021-10-20 19:35:09:770
-0.1721;-12.1781;-2.0411;-9.6726;0.1293;-1.6137;1.2464;3.5211;-0.3615;0.5046;1.5323;0.2254;0.0;-33.24;29.64;12.96;314.18;-3.86;108.22;0.0;60.31;39.46908;-0.341023;14.6;NaN;0.0;3.9;312.31;0 / 32;13513;2021-10-20 19:35:09:820
-0.052;-13.38;-0.84;-9.7923;-0.249;-0.498;1.2464;3.5211;-0.3615;0.6021;1.3673;0.2243;0.0;-33.24;29.64;12.96;314.18;-3.86;108.22;0.0;60.31;39.46908;-0.341023;14.6;NaN;0.0;3.9;312.31;0 / 32;13563;2021-10-20 19:35:09:870
-1.857;-14.0621;-2.6561;-9.7923;-0.249;-0.498;0.5;5.3858;-1.3208;0.4018;1.3878;0.7319;0.0;-31.91;31.8;10.56;338.96;1.45;92.91;0.0;60.31;39.46908;-0.341023;14.6;NaN;0.0;3.9;312.31;0 / 32;13613;2021-10-20 19:35:09:920
0.507;-13.255;-4.835;-9.1458;-0.0862;-3.5434;2.9045;3.3474;2.8569;0.4018;1.3878;0.7319;0.0;-30.36;33.3;10.26;328.74;0.5;111.18;0.0;60.31;39.46908;-0.341023;14.6;NaN;0.0;3.9;312.31;0 / 32;13663;2021-10-20 19:35:09:970
-0.306;-14.608;3.348;-9.7157;0.1341;-1.3312;0.4836;5.387;0.258;-0.1383;1.4706;0.7;0.0;-30.36;33.3;10.26;328.74;0.5;111.18;0.0;60.31;39.46908;-0.341023;14.6;NaN;0.0;3.9;312.31;0 / 32;13713;2021-10-20 19:35:10:020
-0.306;-14.608;3.348;-9.7013;0.2729;1.3982;0.4836;5.387;0.258;-0.1383;1.4706;0.7;0.0;-28.74;31.91;14.59;328.74;0.5;111.18;0.0;58.171;39.46908;-0.341023;14.6;NaN;0.0;3.9;312.31;0 / 32;13763;2021-10-20 19:35:10:070
-0.828;-8.028;-3.7121;-9.7013;0.2729;1.3982;0.378;-0.4092;-3.0352;0.3494;0.4725;0.2749;0.0;-28.31;27.11;21.66;325.77;-1.6;81.8;0.0;58.171;39.46908;-0.341023;14.6;NaN;0.0;3.9;312.31;0 / 32;13812;2021-10-20 19:35:10:119
-2.0051;-8.585;-1.974;-9.323;2.1739;-2.1308;1.9778;-1.0995;0.3928;0.132;-0.2582;0.2507;0.0;-28.31;27.11;21.66;325.77;-1.6;81.8;0.0;58.171;39.46908;-0.341023;14.6;NaN;0.0;3.9;312.31;0 / 32;13862;2021-10-20 19:35:10:169
-2.113;-6.501;-3.224;-8.442;2.7438;-4.1755;1.786;-3.1482;1.4718;0.132;-0.2582;0.2507;0.0;-26.64;20.51;29.04;325.77;-1.6;81.8;0.0;58.171;39.46908;-0.341023;14.6;NaN;0.0;3.9;312.31;0 / 32;13913;2021-10-20 19:35:10:220
0.4211;-4.287;-4.377;-6.8426;-0.656;-6.9959;1.786;-3.1482;1.4718;-1.1723;-0.1922;0.6244;0.0;-26.64;20.51;29.04;325.77;-1.6;81.8;0.0;58.171;39.46908;-0.341023;14.6;NaN;0.0;3.9;312.31;0 / 32;13963;2021-10-20 19:35:10:270
0.974;-4.224;-4.358;-6.7469;-1.5467;-6.9432;1.0985;-6.3666;0.2179;-1.0883;-1.0142;0.2489;0.0;-23.16;13.91;35.16;288.1;3.84;135.63;0.0;58.171;39.46908;-0.341023;14.6;NaN;0.0;3.9;312.31;0 / 32;14012;2021-10-20 19:35:10:319
-0.38;-2.714;-4.461;-5.0853;0.6895;-8.3558;0.0615;-5.9322;1.3702;-1.0883;-1.0142;0.2489;0.0;-19.56;9.54;37.39;288.1;3.84;135.63;0.0;62.404;39.46908;-0.341023;14.6;NaN;0.0;3.9;312.31;0 / 32;14062;2021-10-20 19:35:10:369
-0.38;-2.714;-4.461;-5.0853;0.6895;-8.3558;0.0615;-5.9322;1.3702;-2.1421;-0.3428;-0.4331;0.0;-19.56;9.54;37.39;288.1;3.84;135.63;0.0;62.404;39.46908;-0.341023;14.6;NaN;0.0;3.9;312.31;0 / 32;14112;2021-10-20 19:35:10:419
-4.04;-11.5541;-9.284;-7.3789;2.5762;-5.928;3.1541;3.208;4.195;-1.3167;-0.9327;-0.528;0.0;-17.76;9.41;38.04;285.38;-15.23;128.78;0.0;62.404;39.46908;-0.341023;14.6;NaN;0.0;3.9;312.31;0 / 32;14163;2021-10-20 19:35:10:470
-3.09;-7.525;-3.367;-8.3845;3.4333;-3.7541;2.0978;-0.5557;-2.1147;-1.3167;-0.9327;-0.528;0.0;-18.49;13.91;36.66;287.11;-20.49;114.12;0.0;62.404;39.46908;-0.341023;14.6;NaN;0.0;3.9;312.31;0 / 32;14212;2021-10-20 19:35:10:519
1.893;-16.113;-3.858;-9.4763;-1.1061;-2.2649;2.0978;-0.5557;-2.1147;0.1202;-1.4725;-0.623;0.0;-18.49;13.91;36.66;287.11;-20.49;114.12;0.0;62.404;39.46908;-0.341023;14.6;NaN;0.0;3.9;312.31;0 / 32;14263;2021-10-20 19:35:10:570
-0.753;-7.1329;-0.885;-9.6822;1.0199;-1.1827;-1.7988;3.7706;-0.9882;0.1202;-1.4725;-0.623;0.0;-20.76;20.4;32.51;299.96;6.48;103.44;0.0;62.404;39.46908;-0.341023;14.6;NaN;0.0;3.9;312.31;0 / 32;14313;2021-10-20 19:35:10:620
-0.567;-10.8859;-3.054;-9.4332;0.4836;-2.6432;-1.5224;1.1376;-1.7292;0.9988;-1.0949;-0.7671;0.0;-20.76;20.4;32.51;299.96;6.48;103.44;0.0;61.651;39.46908;-0.341023;14.6;NaN;0.0;3.9;312.31;0 / 32;14362;2021-10-20 19:35:10:669
-0.567;-10.8859;-3.054;-9.4332;0.4836;-2.6432;-1.5224;1.1376;-1.7292;0.9576;-0.3816;-0.6962;0.0;-22.69;26.51;27.79;299.96;6.48;103.44;0.0;61.651;39.46908;-0.341023;14.6;NaN;0.0;3.9;312.31;0 / 32;14413;2021-10-20 19:35:10:720
1.2491;-8.607;-1.732;-9.5193;-1.3743;-1.9154;-1.3692;0.1274;-1.9077;0.9576;-0.3816;-0.6962;0.0;-23.21;31.09;23.16;320.81;8.06;101.38;0.0;61.651;39.46908;-0.341023;14.6;NaN;0.0;3.9;312.31;0 / 32;14463;2021-10-20 19:35:10:770
0.962;-9.189;-1.601;-9.6103;-0.996;-1.6664;-2.3958;-0.2711;-2.1618;0.8807;0.0628;-0.5309;0.0;-23.21;31.09;23.16;320.81;8.06;101.38;0.0;61.651;39.46908;-0.341023;14.6;NaN;0.0;3.9;312.31;0 / 32;14512;2021-10-20 19:35:10:819
0.05;-9.215;-1.407;-9.6965;-0.0431;-1.4796;0.005;-0.147;-1.5408;0.6122;0.6126;-0.3695;0.0;-23.76;34.2;19.26;327.55;5.83;99.84;0.0;61.651;39.46908;-0.341023;14.6;NaN;0.0;3.9;312.31;0 / 32;14563;2021-10-20 19:35:10:870
-0.1241;-10.17;-1.024;-9.7588;0.1197;-0.9816;0.005;-0.147;-1.5408;0.6122;0.6126;-0.3695;0.0;-23.59;35.94;15.79;332.85;-0.7;95.74;0.0;61.651;39.46908;-0.341023;14.6;NaN;0.0;3.9;312.31;0 / 32;14612;2021-10-20 19:35:10:919
0.698;-12.7361;-2.142;-9.6582;-0.5267;-1.6233;0.3703;0.7059;-1.5696;0.6465;0.967;0.2624;0.0;-23.59;35.94;15.79;332.85;-0.7;95.74;0.0;61.651;39.46908;-0.341023;14.6;NaN;0.0;3.9;312.31;0 / 32;14662;2021-10-20 19:35:10:969
0.698;-12.7361;-2.142;-9.6582;-0.5267;-1.6233;-0.4524;3.1908;-0.1021;0.6465;0.967;0.2624;0.0;-23.16;36.9;12.66;336.39;3.08;99.54;0.0;58.036;39.46908;-0.341023;14.6;NaN;0.0;3.9;312.31;0 / 32;14713;2021-10-20 19:35:11:020
2.0321;-13.174;-3.006;-9.6103;-1.3312;-1.4365;-1.6755;4.9784;0.1832;0.3318;1.2372;0.2184;0.0;-23.16;36.9;12.66;336.39;3.08;99.54;0.0;58.036;39.46908;-0.341023;14.6;NaN;0.0;3.9;312.31;0 / 32;14762;2021-10-20 19:35:11:069
-3.868;-13.366;-2.113;-8.758;2.466;-3.6583;-1.6755;4.9784;0.1832;0.1356;1.3127;0.2717;0.0;-21.71;37.91;11.64;339.46;7.8;98.5;0.0;58.036;39.46908;-0.341023;14.6;NaN;0.0;3.9;312.31;0 / 32;14813;2021-10-20 19:35:11:120
-0.0551;-12.2119;-5.799;-9.0644;0.5028;-3.7158;0.7672;1.4492;3.7501;0.1356;1.3127;0.2717;0.0;-19.26;37.74;14.46;339.46;7.8;98.5;0.0;58.036;39.46908;-0.341023;14.6;NaN;0.0;3.9;312.31;0 / 32;14863;2021-10-20 19:35:11:170
-0.624;-15.551;2.817;-9.0644;0.5028;-3.7158;0.7672;1.4492;3.7501;-0.3374;1.5935;0.6878;0.0;-19.26;37.74;14.46;339.46;7.8;98.5;0.0;58.036;39.46908;-0.341023;14.6;NaN;0.0;3.9;312.31;0 / 32;14913;2021-10-20 19:35:11:220
1.242;-8.655;-3.7309;-9.1985;-0.656;3.3471;0.6073;5.9602;-4.8989;0.2721;-0.2761;0.0956;0.0;-18.24;34.74;20.29;340.9;3.83;70.0;0.0;58.036;39.46908;-0.341023;14.6;NaN;0.0;3.9;312.31;0 / 32;14962;2021-10-20 19:35:11:269
-3.252;-8.317;-3.1541;-8.3606;-0.1149;-5.1236;-1.3387;-0.9618;1.7704;0.2721;-0.2761;0.0956;0.0;-19.44;29.04;26.59;340.9;3.83;70.0;0.0;60.5;39.46908;-0.341023;14.6;NaN;0.0;3.9;312.31;0 / 32;15012;2021-10-20 19:35:11:319
-3.252;-8.317;-3.1541;-8.6957;4.4819;-0.723;3.7598;-2.5372;-1.2901;0.2555;-1.4788;-0.1112;0.0;-19.44;29.04;26.59;340.9;3.83;70.0;0.0;60.5;39.46908;-0.341023;14.6;NaN;0.0;3.9;312.31;0 / 32;15062;2021-10-20 19:35:11:369
-1.199;-6.204;-3.6349;-6.7804;1.9632;-6.8043;-1.13;-4.2816;1.814;-1.0658;-0.3616;0.5548;0.0;-18.19;21.3;32.29;289.31;-27.19;94.75;0.0;60.5;39.46908;-0.341023;14.6;NaN;0.0;3.9;312.31;0 / 32;15113;2021-10-20 19:35:11:420
-2.0509;-3.2741;-1.596;-6.7804;1.9632;-6.8043;-1.13;-4.2816;1.814;-1.0658;-0.3616;0.5548;0.0;-18.19;21.3;32.29;289.31;-27.19;94.75;0.0;60.5;39.46908;-0.341023;14.6;NaN;0.0;3.9;312.31;0 / 32;15163;2021-10-20 19:35:11:470
-1.0069;-4.107;-4.839;-7.4268;-0.4022;-6.3925;0.372;-5.6589;-1.546;-1.0139;-1.1021;0.4195;0.0;-13.39;13.74;36.66;295.87;-11.55;135.1;0.0;60.5;39.46908;-0.341023;14.6;NaN;0.0;3.9;312.31;0 / 32;15212;2021-10-20 19:35:11:519
-2.1439;-5.742;-8.8751;-5.1763;1.7526;-8.1451;0.3975;-5.626;0.7431;-1.0139;-1.1021;0.4195;0.0;-10.56;9.79;38.59;295.87;-11.55;135.1;0.0;60.5;39.46908;-0.341023;14.6;NaN;0.0;3.9;312.31;0 / 32;15265;2021-10-20 19:35:11:572
1.335;-5.579;0.263;-6.8809;4.9847;-4.8937;2.1735;-1.0023;4.4398;-2.1618;-0.3226;0.2795;0.0;-10.56;9.79;38.59;295.87;-11.55;135.1;0.0;63.176;39.46908;-0.341023;14.6;NaN;0.0;3.9;312.31;0 / 32;15313;2021-10-20 19:35:11:620
1.335;-5.579;0.263;-8.5281;1.7813;-4.5011;2.1735;-1.0023;4.4398;-1.5036;-0.9413;-0.6332;0.0;-10.44;10.5;38.76;294.11;-30.56;125.42;0.0;63.176;39.46908;-0.341023;14.6;NaN;0.0;3.9;312.31;0 / 32;15363;2021-10-20 19:35:11:670
-4.322;-15.1901;-9.766;-9.1075;-2.1835;-2.9209;0.7581;2.989;0.8397;-1.5036;-0.9413;-0.6332;0.0;-12.84;16.69;35.64;293.81;12.86;107.78;0.0;63.176;39.46908;-0.341023;14.6;NaN;0.0;3.9;312.31;0 / 32;15413;2021-10-20 19:35:11:720
0.081;-7.7839;-4.947;-9.1075;-2.1835;-2.9209;-4.6862;4.894;-0.9837;-0.0441;-1.4685;-1.2367;0.0;-12.84;16.69;35.64;293.81;12.86;107.78;0.0;63.176;39.46908;-0.341023;14.6;NaN;0.0;3.9;312.31;0 / 32;15463;2021-10-20 19:35:11:770
1.053;-10.1891;-2.537;-9.1411;1.9106;-3.0023;0.1807;-1.0856;-2.5054;0.4558;-0.6863;-0.8823;0.0;-15.71;24.11;30.66;303.11;-11.23;108.18;0.0;63.176;39.46908;-0.341023;14.6;NaN;0.0;3.9;312.31;0 / 32;15513;2021-10-20 19:35:11:820
0.234;-9.754;-2.805;-9.4188;-1.4269;-2.3272;0.1807;-1.0856;-2.5054;0.4558;-0.6863;-0.8823;0.0;-15.71;24.11;30.66;303.11;-11.23;108.18;0.0;63.176;39.46908;-0.341023;14.6;NaN;0.0;3.9;312.31;0 / 32;15563;2021-10-20 19:35:11:870
0.8711;-10.1681;-1.4261;-9.5864;-0.3112;-2.0542;-1.1076;1.0404;-1.6246;0.6841;-0.07;-0.6203;0.0;-17.16;28.91;26.64;314.87;8.37;103.88;0.0;63.176;39.46908;-0.341023;14.6;NaN;0.0;3.9;312.31;0 / 32;15612;2021-10-20 19:35:11:919
0.8711;-10.1681;-1.4261;-9.6582;-0.0766;-1.6999;-1.249;0.7624;-2.3294;0.6841;-0.07;-0.6203;0.0;-17.59;32.34;22.69;321.25;0.45;99.98;0.0;61.79;39.46908;-0.341023;14.6;NaN;0.0;3.9;312.31;0 / 32;15662;2021-10-20 19:35:11:969
-0.895;-8.451;-1.311;-9.6678;0.3065;-1.6328;0.6483;-0.8188;-2.0486;0.9057;0.0712;-0.6659;0.0;-17.59;32.34;22.69;321.25;0.45;99.98;0.0;61.79;39.46908;-0.341023;14.6;NaN;0.0;3.9;312.31;0 / 32;15712;2021-10-20 19:35:12:019
-0.165;-9.2651;-1.103;-9.6678;0.3065;-1.6328;0.6483;-0.8188;-2.0486;0.7913;0.7568;0.1059;0.0;-18.06;34.14;19.01;327.05;-1.79;99.59;0.0;61.79;39.46908;-0.341023;14.6;NaN;0.0;3.9;312.31;0 / 32;15763;2021-10-20 19:35:12:070
1.239;-10.4329;-0.3229;-9.7444;-0.8954;-0.6608;-1.0185;0.8043;-2.0619;0.7913;0.7568;0.1059;0.0;-18.06;34.14;19.01;327.05;-1.79;99.59;0.0;61.79;39.46908;-0.341023;14.6;NaN;0.0;3.9;312.31;0 / 32;15812;2021-10-20 19:35:12:119
0.359;-12.683;-1.7591;-9.7348;-0.067;-1.1684;-0.0786;2.5142;-0.885;0.7486;0.837;0.129;0.0;-18.41;35.94;15.96;335.32;5.24;93.88;0.0;61.79;39.46908;-0.341023;14.6;NaN;0.0;3.9;312.31;0 / 32;15862;2021-10-20 19:35:12:169
0.059;-14.797;-2.199;-9.5624;-1.6041;-1.4796;-0.0786;2.5142;-0.885;0.4793;0.7795;-0.2175;0.0;-17.81;37.8;12.79;338.45;0.39;96.84;0.0;61.79;39.46908;-0.341023;14.6;NaN;0.0;3.9;312.31;0 / 32;15912;2021-10-20 19:35:12:219
0.059;-14.797;-2.199;-9.5624;-1.6041;-1.4796;0.1847;5.1772;0.276;0.4793;0.7795;-0.2175;0.0;-17.81;37.8;12.79;338.45;0.39;96.84;0.0;61.79;39.46908;-0.341023;14.6;NaN;0.0;3.9;312.31;0 / 32;15962;2021-10-20 19:35:12:269
-1.263;-12.6859;-4.4711;-9.2081;0.9098;-3.2465;-0.1451;3.3849;3.0437;0.0208;2.0219;0.6949;0.0;-17.21;38.21;11.76;338.45;0.39;96.84;0.0;53.496;39.46908;-0.341023;14.6;NaN;0.0;3.9;312.31;0 / 32;16014;2021-10-20 19:35:12:321
-0.825;-14.088;-4.717;-9.2895;0.5411;-3.1077;-0.1451;3.3849;3.0437;0.0208;2.0219;0.6949;0.0;-16.74;37.31;15.49;331.62;-3.16;108.5;0.0;53.496;39.46908;-0.341023;14.6;NaN;0.0;3.9;312.31;0 / 32;16063;2021-10-20 19:35:12:370
1.8521;-12.7031;2.5421;-9.5193;-1.3791;1.901;0.757;5.1124;-0.7717;-0.1765;1.9342;0.8542;0.0;-16.74;37.31;15.49;331.62;-3.16;108.5;0.0;53.496;39.46908;-0.341023;14.6;NaN;0.0;3.9;312.31;0 / 32;16113;2021-10-20 19:35:12:420
-1.256;-10.2251;-6.132;-9.5193;-1.3791;1.901;-1.469;-0.1904;3.449;0.1176;0.0905;-0.254;0.0;-17.46;33.54;22.31;333.51;8.09;78.71;0.0;53.496;39.46908;-0.341023;14.6;NaN;0.0;3.9;312.31;0 / 32;16163;2021-10-20 19:35:12:470
-4.033;-5.493;-0.4609;-8.4659;3.0933;-3.8642;3.4376;-3.3563;-0.5651;0.1176;0.0905;-0.254;0.0;-17.59;26.59;29.16;305.62;-18.39;114.53;0.0;53.496;39.46908;-0.341023;14.6;NaN;0.0;3.9;312.31;0 / 32;16213;2021-10-20 19:35:12:520
-4.033;-5.493;-0.4609;-8.5856;4.1611;-2.2649;3.4376;-3.3563;-0.5651;0.0103;-0.9652;0.1959;0.0;-17.59;26.59;29.16;305.62;-18.39;114.53;0.0;53.496;39.46908;-0.341023;14.6;NaN;0.0;3.9;312.31;0 / 32;16263;2021-10-20 19:35:12:570
0.528;-6.568;-4.251;-8.3558;0.2777;-5.1284;0.054;-3.0125;1.8154;-0.9868;-0.4925;0.7872;0.0;-14.46;18.0;34.61;305.62;-18.39;114.53;0.0;63.875;39.46908;-0.341023;14.6;NaN;0.0;3.9;312.31;0 / 32;16313;2021-10-20 19:35:12:620
-1.338;-3.664;-2.01;-7.8051;2.7485;-5.2625;0.1969;-5.6888;-0.7186;-0.9868;-0.4925;0.7872;0.0;-14.46;18.0;34.61;305.62;-18.39;114.53;0.0;63.875;39.46908;-0.341023;14.6;NaN;0.0;3.9;312.31;0 / 32;16362;2021-10-20 19:35:12:669
-1.213;-3.446;-4.2079;-4.9656;1.0965;-8.3845;0.1969;-5.6888;-0.7186;-1.3223;-1.1037;-0.2344;0.0;-9.96;10.74;37.99;290.93;-16.28;123.99;0.0;63.875;39.46908;-0.341023;14.6;NaN;0.0;3.9;312.31;0 / 32;16413;2021-10-20 19:35:12:720
-1.675;-2.9029;-5.2271;-4.2808;2.5905;-8.4324;-0.4307;-5.3708;2.4667;-2.237;-0.3888;0.2006;0.0;-7.39;8.29;39.49;293.58;-6.42;149.36;0.0;63.875;39.46908;-0.341023;14.6;NaN;0.0;3.9;312.31;0 / 32;16463;2021-10-20 19:35:12:770
5.675;-12.5951;-3.956;-4.2808;2.5905;-8.4324;1.289;2.3446;8.0551;-2.237;-0.3888;0.2006;0.0;-7.39;8.29;39.49;293.58;-6.42;149.36;0.0;63.875;39.46908;-0.341023;14.6;NaN;0.0;3.9;312.31;0 / 32;16512;2021-10-20 19:35:12:819
-6.747;-5.7851;-6.5531;-9.6295;-1.0726;-1.5371;1.289;2.3446;8.0551;-0.9866;-1.547;-1.8892;0.0;-8.16;10.39;38.89;284.29;6.28;99.07;0.0;63.875;39.46908;-0.341023;14.6;NaN;0.0;3.9;312.31;0 / 32;16563;2021-10-20 19:35:12:870
-6.747;-5.7851;-6.5531;-9.2129;-3.3662;0.0575;5.505;-2.0948;0.8324;-0.9866;-1.547;-1.8892;0.0;-10.61;16.74;36.54;298.22;20.07;89.64;0.0;63.875;39.46908;-0.341023;14.6;NaN;0.0;3.9;312.31;0 / 32;16612;2021-10-20 19:35:12:919
-0.191;-13.784;-6.1421;-9.2608;0.814;-3.122;-1.0394;5.7506;0.6405;0.2937;-1.4913;-1.1282;0.0;-10.61;16.74;36.54;298.22;20.07;89.64;0.0;61.386;39.46908;-0.341023;14.6;NaN;0.0;3.9;312.31;0 / 32;16662;2021-10-20 19:35:12:969
-0.019;-8.626;-2.7521;-9.2703;-0.0958;-3.1987;-1.0394;5.7506;0.6405;0.8049;-0.6083;-0.1676;0.0;-13.44;24.54;32.64;304.96;-4.76;108.63;0.0;61.386;39.46908;-0.341023;14.6;NaN;0.0;3.9;312.31;0 / 32;16713;2021-10-20 19:35:13:020
-0.28;-9.17;-2.096;-9.5624;-0.1053;-2.1787;-1.2756;-0.4751;-2.0067;0.8049;-0.6083;-0.1676;0.0;-13.44;24.54;32.64;304.96;-4.76;108.63;0.0;61.386;39.46908;-0.341023;14.6;NaN;0.0;3.9;312.31;0 / 32;16763;2021-10-20 19:35:13:070
2.123;-10.7329;-1.785;-9.5624;-0.1053;-2.1787;-1.7295;2.0887;-2.1748;0.8612;-0.095;-0.4485;0.0;-15.71;29.59;27.71;304.96;-4.76;108.63;0.0;61.386;39.46908;-0.341023;14.6;NaN;0.0;3.9;312.31;0 / 32;16813;2021-10-20 19:35:13:120
1.266;-8.5541;-0.55;-9.4763;-2.2553;-1.1253;-2.3173;-0.3646;-2.8369;0.9648;0.0954;-0.7089;0.0;-16.69;33.41;22.99;324.92;13.3;96.77;0.0;61.386;39.46908;-0.341023;14.6;NaN;0.0;3.9;312.31;0 / 32;16862;2021-10-20 19:35:13:169
1.266;-8.5541;-0.55;-9.6678;-1.1636;-1.1492;-2.3173;-0.3646;-2.8369;0.9648;0.0954;-0.7089;0.0;-16.69;33.41;22.99;324.92;13.3;96.77;0.0;61.386;39.46908;-0.341023;14.6;NaN;0.0;3.9;312.31;0 / 32;16913;2021-10-20 19:35:13:220
0.464;-9.1721;-1.3451;-9.7205;-0.589;-1.1636;-0.4071;-0.2099;-1.5377;0.8562;0.3091;-0.6236;0.0;-17.29;36.49;18.84;330.89;6.82;96.78;0.0;61.732;39.46908;-0.341023;14.6;NaN;0.0;3.9;312.31;0 / 32;16963;2021-10-20 19:35:13:270
1.182;-9.8711;0.134;-9.7971;-0.3926;-0.0287;-0.768;0.3643;-2.5348;0.8562;0.3091;-0.6236;0.0;-18.06;38.34;14.81;338.74;2.3;90.17;0.0;61.732;39.46908;-0.341023;14.6;NaN;0.0;3.9;312.31;0 / 32;17013;2021-10-20 19:35:13:320
0.306;-9.976;0.014;-9.8019;-0.0479;-0.2203;0.3253;0.3851;-1.9903;0.7576;0.6292;-0.3132;0.0;-18.06;38.34;14.81;338.74;2.3;90.17;0.0;61.732;39.46908;-0.341023;14.6;NaN;0.0;3.9;312.31;0 / 32;17062;2021-10-20 19:35:13:369
1.7591;-11.089;0.0641;-9.8019;-0.0479;-0.2203;0.3253;0.3851;-1.9903;0.7;1.0759;0.0914;0.0;-17.81;40.2;11.16;344.12;0.28;91.29;0.0;61.732;39.46908;-0.341023;14.6;NaN;0.0;3.9;312.31;0 / 32;17112;2021-10-20 19:35:13:419
1.2821;-14.278;-1.347;-9.7444;-1.0439;-0.3735;-1.0599;1.426;-1.5874;0.7;1.0759;0.0914;0.0;-17.81;40.2;11.16;344.12;0.28;91.29;0.0;61.732;39.46908;-0.341023;14.6;NaN;0.0;3.9;312.31;0 / 32;17163;2021-10-20 19:35:13:470
1.2821;-14.278;-1.347;-9.73;-0.1963;-1.2115;0.4619;4.534;0.6433;0.3495;1.4392;0.1108;0.0;-16.26;41.64;7.69;348.79;6.11;92.2;0.0;61.732;39.46908;-0.341023;14.6;NaN;0.0;3.9;312.31;0 / 32;17212;2021-10-20 19:35:13:519
-1.17;-13.61;-1.158;-9.4858;1.2354;-2.1691;0.4619;4.534;0.6433;-0.0069;2.2157;0.4467;0.0;-13.86;42.41;6.11;348.79;6.11;92.2;0.0;60.72;39.46908;-0.341023;14.6;NaN;0.0;3.9;312.31;0 / 32;17262;2021-10-20 19:35:13:569
-0.399;-12.8629;-3.64;-9.4858;1.2354;-2.1691;2.0901;1.8806;1.6479;-0.0069;2.2157;0.4467;0.0;-13.86;42.41;6.11;348.79;6.11;92.2;0.0;60.72;39.46908;-0.341023;14.6;NaN;0.0;3.9;312.31;0 / 32;17312;2021-10-20 19:35:13:619
-1.7299;-13.287;-0.399;-9.5768;0.3065;-2.0877;1.9258;3.5424;-0.7515;-0.3139;2.6054;0.7695;0.0;-10.99;42.11;9.19;345.05;-1.79;102.3;0.0;60.72;39.46908;-0.341023;14.6;NaN;0.0;3.9;312.31;0 / 32;17363;2021-10-20 19:35:13:670
-0.847;-11.1251;-2.0411;-9.6869;1.4796;0.3926;0.7566;1.3802;0.8409;-0.0498;1.0698;0.5761;0.0;-8.04;40.09;14.29;340.34;-8.68;87.68;0.0;60.72;39.46908;-0.341023;14.6;NaN;0.0;3.9;312.31;0 / 32;17412;2021-10-20 19:35:13:719
-1.7951;-10.093;-4.1021;-8.9447;1.3982;-3.7685;0.7566;1.3802;0.8409;-0.0498;1.0698;0.5761;0.0;-8.04;40.09;14.29;340.34;-8.68;87.68;0.0;60.72;39.46908;-0.341023;14.6;NaN;0.0;3.9;312.31;0 / 32;17463;2021-10-20 19:35:13:770
-2.774;-7.985;-3.5299;-8.4132;3.5338;-3.6009;2.3698;-1.5615;1.4409;-0.2757;-0.4764;0.5396;0.0;-5.04;37.31;18.11;333.37;-8.2;112.85;0.0;60.72;39.46908;-0.341023;14.6;NaN;0.0;3.9;312.31;0 / 32;17513;2021-10-20 19:35:13:820
-2.774;-7.985;-3.5299;-9.0932;0.8284;-3.5817;1.2862;-0.5474;1.9118;-0.2757;-0.4764;0.5396;0.0;-5.04;37.31;18.11;333.37;-8.2;112.85;0.0;60.72;39.46908;-0.341023;14.6;NaN;0.0;3.9;312.31;0 / 32;17563;2021-10-20 19:35:13:870
-0.574;-7.6061;-3.5801;-7.2592;4.3383;-4.9656;0.0438;-4.4618;0.3556;-0.8843;0.6178;0.7825;0.0;-0.24;34.5;19.26;333.37;-8.2;112.85;0.0;59.558;39.46908;-0.341023;14.6;NaN;0.0;3.9;312.31;0 / 32;17613;2021-10-20 19:35:13:920
-0.8441;-3.4751;-2.618;-7.2592;4.3383;-4.9656;0.0438;-4.4618;0.3556;-0.8759;0.2761;0.5765;0.0;4.01;32.21;17.16;341.11;-26.26;124.37;0.0;59.558;39.46908;-0.341023;14.6;NaN;0.0;3.9;312.31;0 / 32;17663;2021-10-20 19:35:13:970
-0.0641;-2.829;-3.729;-6.9959;-0.1006;-6.8714;-1.5348;-5.5199;0.712;-0.8759;0.2761;0.5765;0.0;4.01;32.21;17.16;341.11;-26.26;124.37;0.0;59.558;39.46908;-0.341023;14.6;NaN;0.0;3.9;312.31;0 / 32;17713;2021-10-20 19:35:14:020
0.141;-2.1799;-5.5699;-3.4429;0.2729;-9.1794;-1.5348;-5.5199;0.712;-0.8569;1.3372;0.5394;0.0;3.71;31.14;13.69;346.9;0.59;134.49;0.0;59.558;39.46908;-0.341023;14.6;NaN;0.0;3.9;312.31;0 / 32;17763;2021-10-20 19:35:14:070
-6.3041;-5.385;-11.3021;-4.0366;2.5953;-8.5521;-2.0404;-5.7704;2.3197;-0.8569;1.3372;0.5394;0.0;-2.16;31.09;11.04;348.62;-15.35;154.73;0.0;59.558;39.46908;-0.341023;14.6;NaN;0.0;3.9;312.31;0 / 32;17813;2021-10-20 19:35:14:120
-6.3041;-5.385;-11.3021;-7.9152;1.3408;-5.6312;8.114;3.1005;11.9903;-0.8569;1.3372;0.5394;0.0;-2.16;31.09;11.04;348.62;-15.35;154.73;0.0;59.558;39.46908;-0.341023;14.6;NaN;0.0;3.9;312.31;0 / 32;17863;2021-10-20 19:35:14:170
10.2491;-9.107;-0.222;-7.9152;1.3408;-5.6312;8.114;3.1005;11.9903;-0.4935;2.733;1.7615;0.0;-10.99;30.71;9.41;335.58;-7.86;125.43;0.0;62.91;39.46908;-0.341023;14.6;NaN;0.0;3.9;312.31;0 / 32;17913;2021-10-20 19:35:14:220
-6.075;-5.469;-7.1591;-4.0079;6.2297;-6.4308;6.3529;-1.2466;2.9921;-0.4935;2.733;1.7615;0.0;-10.99;30.71;9.41;335.58;-7.86;125.43;0.0;62.91;39.46908;-0.341023;14.6;NaN;0.0;3.9;312.31;0 / 32;17963;2021-10-20 19:35:14:270
-2.345;-13.3969;-5.148;-9.5337;-0.2442;-2.2841;-2.8819;5.6723;-3.1638;-0.4935;2.733;1.7615;0.0;-17.51;30.41;6.66;335.58;-7.86;125.43;0.0;62.91;39.46908;-0.341023;14.6;NaN;0.0;3.9;312.31;0 / 32;18013;2021-10-20 19:35:14:320
1.1321;-8.229;-2.4101;-9.3374;-1.2833;-2.7198;-3.4706;0.4461;-3.0943;0.5834;-1.7099;-1.2346;0.0;-20.81;30.24;0.71;349.11;1.43;103.47;0.0;62.91;39.46908;-0.341023;14.6;NaN;0.0;3.9;312.31;0 / 32;18063;2021-10-20 19:35:14:370
0.677;-11.353;-2.606;-9.3374;-1.2833;-2.7198;-3.4706;0.4461;-3.0943;0.5834;-1.7099;-1.2346;0.0;-20.81;30.24;0.71;349.11;1.43;103.47;0.0;62.91;39.46908;-0.341023;14.6;NaN;0.0;3.9;312.31;0 / 32;18113;2021-10-20 19:35:14:420
0.677;-11.353;-2.606;-9.4284;-0.9433;-2.5235;-2.5375;2.9943;-2.1867;1.1499;-0.2751;-1.1939;0.0;-21.54;29.94;-6.96;349.11;1.43;103.47;0.0;62.91;39.46908;-0.341023;14.6;NaN;0.0;3.9;312.31;0 / 32;18163;2021-10-20 19:35:14:470
2.735;-9.4181;-0.701;-9.5768;-1.8771;-0.9577;-2.8227;0.8887;-2.9975;1.1499;-0.2751;-1.1939;0.0;-21.54;29.94;-6.96;349.11;1.43;103.47;0.0;62.745;39.46908;-0.341023;14.6;NaN;0.0;3.9;312.31;0 / 32;18212;2021-10-20 19:35:14:519
0.1241;-10.4239;-1.7779;-9.6486;0.1867;-1.7382;-0.0182;0.5775;-1.7001;1.144;1.1491;-0.9529;0.0;-20.29;28.01;-13.99;20.72;11.04;95.71;0.0;62.745;39.46908;-0.341023;14.6;NaN;0.0;3.9;312.31;0 / 32;18262;2021-10-20 19:35:14:569
0.6101;-9.1961;-0.859;-9.6486;0.1867;-1.7382;-0.0182;0.5775;-1.7001;0.9067;1.2532;-0.2619;0.0;-17.94;25.01;-19.61;20.72;11.04;95.71;0.0;62.745;39.46908;-0.341023;14.6;NaN;0.0;3.9;312.31;0 / 32;18313;2021-10-20 19:35:14:620
1.6511;-8.961;-0.1309;-9.6678;-1.6281;0.2346;-0.5213;-0.1;-2.2709;0.9067;1.2532;-0.2619;0.0;-17.94;25.01;-19.61;20.72;11.04;95.71;0.0;62.745;39.46908;-0.341023;14.6;NaN;0.0;3.9;312.31;0 / 32;18363;2021-10-20 19:35:14:670
1.311;-10.493;-1.5101;-9.663;-0.6081;-1.5562;-0.4042;-0.5063;-1.2396;0.7957;1.2554;-0.0206;0.0;-15.19;22.39;-23.76;45.32;9.56;88.61;0.0;62.745;39.46908;-0.341023;14.6;NaN;0.0;3.9;312.31;0 / 32;18413;2021-10-20 19:35:14:720
1.311;-10.493;-1.5101;-9.323;-2.5714;-1.6376;-0.4042;-0.5063;-1.2396;0.7957;1.2554;-0.0206;0.0;-12.24;20.21;-26.21;45.32;9.56;88.61;0.0;62.745;39.46908;-0.341023;14.6;NaN;0.0;3.9;312.31;0 / 32;18463;2021-10-20 19:35:14:770
2.8241;-10.4411;-3.087;-9.6391;-1.5036;-1.0391;-1.9573;0.1942;-0.2195;0.4396;1.76;-0.2002;0.0;-12.24;20.21;-26.21;45.32;9.56;88.61;0.0;62.745;39.46908;-0.341023;14.6;NaN;0.0;3.9;312.31;0 / 32;18512;2021-10-20 19:35:14:819
-0.2719;-15.063;-4.698;-9.6391;-1.5036;-1.0391;1.3647;5.4786;2.8617;-0.1869;1.6866;0.0375;0.0;-9.71;19.8;-27.06;49.86;8.82;96.15;0.0;62.097;39.46908;-0.341023;14.6;NaN;0.0;3.9;312.31;0 / 32;18563;2021-10-20 19:35:14:870
-1.924;-12.092;-3.111;-9.1698;1.2641;-3.2513;2.9386;2.5233;1.1615;-0.1869;1.6866;0.0375;0.0;-9.24;21.84;-25.74;47.64;-7.4;109.52;0.0;62.097;39.46908;-0.341023;14.6;NaN;0.0;3.9;312.31;0 / 32;18612;2021-10-20 19:35:14:919
-6.0101;-13.145;-0.988;-8.6239;4.5969;-0.8284;2.9386;2.5233;1.1615;-0.2637;0.9497;0.7925;0.0;-9.24;21.84;-25.74;47.64;-7.4;109.52;0.0;62.097;39.46908;-0.341023;14.6;NaN;0.0;3.9;312.31;0 / 32;18662;2021-10-20 19:35:14:969
1.5791;-10.5769;-1.46;-9.6343;-1.3791;1.1971;1.3693;2.7603;-4.1097;0.3678;0.1415;1.1903;0.0;-10.09;26.51;-20.64;47.64;-7.4;109.52;0.0;62.097;39.46908;-0.341023;14.6;NaN;0.0;3.9;312.31;0 / 32;18713;2021-10-20 19:35:15:020
-1.507;-9.05;-6.146;-8.2504;-0.0096;-5.3008;-0.9211;0.6997;3.606;0.3678;0.1415;1.1903;0.0;-10.09;26.51;-20.64;47.64;-7.4;109.52;0.0;62.097;39.46908;-0.341023;14.6;NaN;0.0;3.9;312.31;0 / 32;18763;2021-10-20 19:35:15:070
-1.507;-9.05;-6.146;-8.5186;3.9935;-2.7773;-0.9211;0.6997;3.606;-0.1323;0.0076;0.4092;0.0;-10.91;30.84;-13.61;10.65;0.06;122.72;0.0;62.097;39.46908;-0.341023;14.6;NaN;0.0;3.9;312.31;0 / 32;18812;2021-10-20 19:35:15:119
-2.1229;-6.809;-3.791;-8.5186;3.9935;-2.7773;2.3151;-3.5164;0.1551;-0.1323;0.0076;0.4092;0.0;-11.46;32.94;-6.54;7.4;-24.02;108.06;0.0;62.489;39.46908;-0.341023;14.6;NaN;0.0;3.9;312.31;0 / 32;18862;2021-10-20 19:35:15:169
0.3491;-4.8469;-5.3659;-6.4308;0.0814;-7.4029;-0.6192;-4.0338;3.6626;-1.334;-0.0903;0.2613;0.0;-11.46;32.94;-6.54;7.4;-24.02;108.06;0.0;62.489;39.46908;-0.341023;14.6;NaN;0.0;3.9;312.31;0 / 32;18912;2021-10-20 19:35:15:219
-0.943;-3.736;-5.7731;-6.3255;0.1293;-7.4939;-0.8064;-5.0744;1.2996;-1.6918;-0.3136;0.1805;0.0;-10.09;33.3;-0.11;7.4;-24.02;108.06;0.0;62.489;39.46908;-0.341023;14.6;NaN;0.0;3.9;312.31;0 / 32;18963;2021-10-20 19:35:15:270
-1.764;-3.173;-6.381;-4.956;1.8004;-8.2696;0.5302;-4.6812;1.9716;-1.6918;-0.3136;0.1805;0.0;-7.99;33.3;3.49;345.35;-10.58;149.07;0.0;62.489;39.46908;-0.341023;14.6;NaN;0.0;3.9;312.31;0 / 32;19013;2021-10-20 19:35:15:320
-0.478;-3.4939;-7.527;-4.2329;1.5802;-8.7101;0.5302;-4.6812;1.9716;-2.2447;0.1719;0.0975;0.0;-7.99;33.3;3.49;345.35;-10.58;149.07;0.0;62.489;39.46908;-0.341023;14.6;NaN;0.0;3.9;312.31;0 / 32;19063;2021-10-20 19:35:15:370
-0.478;-3.4939;-7.527;-4.4245;1.7286;-8.576;0.1805;-4.8795;0.6375;-2.0944;0.0173;0.4627;0.0;-6.11;34.2;4.26;348.03;-9.27;154.08;0.0;62.489;39.46908;-0.341023;14.6;NaN;0.0;3.9;312.31;0 / 32;19112;2021-10-20 19:35:15:419
-4.4441;-8.246;-12.8561;-4.4245;1.7286;-8.576;3.2044;1.3015;6.0252;-2.0944;0.0173;0.4627;0.0;-6.11;34.2;4.26;348.03;-9.27;154.08;0.0;61.112;39.46908;-0.341023;14.6;NaN;0.0;3.9;312.31;0 / 32;19162;2021-10-20 19:35:15:469
2.2811;-7.281;-2.704;-6.6798;1.2593;-7.0677;3.2044;1.3015;6.0252;-1.174;-0.1244;0.5471;0.0;-4.14;35.1;3.06;351.84;-7.38;136.62;0.0;61.112;39.46908;-0.341023;14.6;NaN;0.0;3.9;312.31;0 / 32;19213;2021-10-20 19:35:15:520
1.022;-11.365;-5.342;-6.4739;4.1755;-6.0669;1.6978;1.9259;-5.0344;0.4685;-0.2991;0.0785;0.0;-2.51;35.89;0.06;356.29;-25.2;133.14;0.0;61.112;39.46908;-0.341023;14.6;NaN;0.0;3.9;312.31;0 / 32;19263;2021-10-20 19:35:15:570
-2.063;-11.4701;-5.8331;-9.2081;-0.3687;-3.3567;-2.0929;6.6941;-1.8787;0.4685;-0.2991;0.0785;0.0;-2.51;35.89;0.06;356.29;-25.2;133.14;0.0;61.112;39.46908;-0.341023;14.6;NaN;0.0;3.9;312.31;0 / 32;19312;2021-10-20 19:35:15:619
-0.4519;-9.789;-2.637;-9.0644;1.834;-3.2657;-2.0929;6.6941;-1.8787;1.7967;0.5555;-0.1675;0.0;-0.96;35.59;-5.04;6.88;2.15;110.03;0.0;61.112;39.46908;-0.341023;14.6;NaN;0.0;3.9;312.31;0 / 32;19362;2021-10-20 19:35:15:669
-0.4519;-9.789;-2.637;-9.6199;0.3926;-1.8579;-0.798;2.0446;-3.2693;1.7967;0.5555;-0.1675;0.0;1.01;34.14;-10.26;16.43;-2.29;100.93;0.0;61.112;39.46908;-0.341023;14.6;NaN;0.0;3.9;312.31;0 / 32;19413;2021-10-20 19:35:15:720
0.296;-9.842;-2.5871;-9.481;-1.9632;-1.5562;-1.2099;1.5537;-2.5984;1.7417;1.1697;0.0869;0.0;1.01;34.14;-10.26;16.43;-2.29;100.93;0.0;61.112;39.46908;-0.341023;14.6;NaN;0.0;3.9;312.31;0 / 32;19462;2021-10-20 19:35:15:769
3.36;-10.273;-1.314;-9.481;-1.9632;-1.5562;-1.2099;1.5537;-2.5984;1.4549;2.1935;0.1359;0.0;3.49;31.8;-14.29;16.43;-2.29;100.93;0.0;62.712;39.46908;-0.341023;14.6;NaN;0.0;3.9;312.31;0 / 32;19512;2021-10-20 19:35:15:819
0.4061;-8.3681;-1.914;-9.5864;-1.6616;-1.2402;-3.3431;1.1747;-2.4965;1.4549;2.1935;0.1359;0.0;3.49;31.8;-14.29;16.43;-2.29;100.93;0.0;62.712;39.46908;-0.341023;14.6;NaN;0.0;3.9;312.31;0 / 32;19562;2021-10-20 19:35:15:869
0.9071;-9.4399;-1.946;-9.6151;0.34;-1.9058;0.6784;-1.0195;-1.9673;0.8782;2.3852;0.0213;0.0;5.64;29.51;-17.16;31.36;9.75;97.37;0.0;62.712;39.46908;-0.341023;14.6;NaN;0.0;3.9;312.31;0 / 32;19613;2021-10-20 19:35:15:920
1.886;-9.914;-0.4541;-9.5241;-2.2505;-0.6033;-1.5951;0.5965;-2.5036;0.6351;1.7156;0.063;0.0;7.14;27.84;-19.01;36.81;13.27;93.62;0.0;62.712;39.46908;-0.341023;14.6;NaN;0.0;3.9;312.31;0 / 32;19662;2021-10-20 19:35:15:969
1.886;-9.914;-0.4541;-9.754;-0.8284;-0.5602;-1.5951;0.5965;-2.5036;0.6351;1.7156;0.063;0.0;7.14;27.84;-19.01;36.81;13.27;93.62;0.0;62.712;39.46908;-0.341023;14.6;NaN;0.0;3.9;312.31;0 / 32;19712;2021-10-20 19:35:16:019
-0.335;-11.63;-0.6821;-9.7875;0.2011;-0.5459;1.2832;2.1913;-1.8469;0.7745;1.297;0.1741;0.0;9.36;25.74;-20.76;36.81;13.27;93.62;0.0;62.712;39.46908;-0.341023;14.6;NaN;0.0;3.9;312.31;0 / 32;19762;2021-10-20 19:35:16:069
0.1721;-13.2319;-0.9499;-9.7875;0.2011;-0.5459;0.391;4.626;-0.8537;0.6787;0.8038;0.4062;0.0;11.89;24.11;-21.79;43.07;-1.18;93.19;0.0;59.738;39.46908;-0.341023;14.6;NaN;0.0;3.9;312.31;0 / 32;19813;2021-10-20 19:35:16:120
-0.533;-13.351;-1.371;-9.7492;0.3879;-0.996;0.391;4.626;-0.8537;0.6787;0.8038;0.4062;0.0;11.89;24.11;-21.79;43.07;-1.18;93.19;0.0;59.738;39.46908;-0.341023;14.6;NaN;0.0;3.9;312.31;0 / 32;19863;2021-10-20 19:35:16:170
-0.6701;-13.0159;-4.342;-9.2943;0.4788;-3.0933;2.5358;2.5595;1.4518;0.2045;0.4331;0.5874;0.0;13.56;23.21;-21.54;43.07;-1.18;93.19;0.0;59.738;39.46908;-0.341023;14.6;NaN;0.0;3.9;312.31;0 / 32;19912;2021-10-20 19:35:16:219
-1.637;-14.3539;-1.1921;-9.7109;1.1061;-0.8045;2.1712;4.3773;1.5574;0.2045;0.4331;0.5874;0.0;15.19;24.79;-19.09;41.9;-2.8;108.41;0.0;59.738;39.46908;-0.341023;14.6;NaN;0.0;3.9;312.31;0 / 32;19962;2021-10-20 19:35:16:269
-1.637;-14.3539;-1.1921;-9.7109;1.1061;-0.8045;2.1712;4.3773;1.5574;-0.1566;0.392;0.5603;0.0;15.19;24.79;-19.09;41.9;-2.8;108.41;0.0;59.738;39.46908;-0.341023;14.6;NaN;0.0;3.9;312.31;0 / 32;20012;2021-10-20 19:35:16:319
0.9311;-10.3999;-1.4861;-9.6726;-0.8619;-1.3838;-0.9757;2.0498;-3.4533;0.0666;0.758;0.3508;0.0;15.41;28.69;-12.66;28.39;5.04;98.14;0.0;59.738;39.46908;-0.341023;14.6;NaN;0.0;3.9;312.31;0 / 32;20062;2021-10-20 19:35:16:369
-1.7659;-9.536;-3.2089;-9.1602;1.6855;-3.0742;0.206;1.4723;4.4709;0.0666;0.758;0.3508;0.0;15.41;28.69;-12.66;28.39;5.04;98.14;0.0;59.757;39.46908;-0.341023;14.6;NaN;0.0;3.9;312.31;0 / 32;20113;2021-10-20 19:35:16:420
-1.893;-5.8061;-2.307;-8.7293;2.8252;-3.462;1.5568;-3.8561;0.6338;-0.0652;1.0196;0.4386;0.0;13.99;32.29;-5.04;28.39;5.04;98.14;0.0;59.757;39.46908;-0.341023;14.6;NaN;0.0;3.9;312.31;0 / 32;20163;2021-10-20 19:35:16:470
-1.893;-5.8061;-2.307;-8.7293;2.8252;-3.462;1.5568;-3.8561;0.6338;-0.0652;1.0196;0.4386;0.0;12.41;33.71;1.56;4.08;-16.74;111.63;0.0;59.757;39.46908;-0.341023;14.6;NaN;0.0;3.9;312.31;0 / 32;20213;2021-10-20 19:35:16:520
-0.347;-3.3979;-2.984;-7.3406;0.7374;-6.4596;-0.2431;-6.1331;0.7217;-0.4187;0.7092;0.4799;0.0;12.41;33.71;1.56;4.08;-16.74;111.63;0.0;59.757;39.46908;-0.341023;14.6;NaN;0.0;3.9;312.31;0 / 32;20263;2021-10-20 19:35:16:570
-2.1559;-2.723;-2.2691;-5.047;-0.4022;-8.3989;-1.1871;-6.2451;1.4792;-0.4187;0.7092;0.4799;0.0;12.96;32.94;6.66;5.6;-4.31;131.35;0.0;59.757;39.46908;-0.341023;14.6;NaN;0.0;3.9;312.31;0 / 32;20312;2021-10-20 19:35:16:619
-1.445;-2.901;-4.5551;-5.3678;1.6712;-8.0397;-1.1871;-6.2451;1.4792;-0.4187;0.7092;0.4799;0.0;13.74;32.21;8.46;5.6;-4.31;131.35;0.0;59.757;39.46908;-0.341023;14.6;NaN;0.0;3.9;312.31;0 / 32;20363;2021-10-20 19:35:16:670
-1.457;-10.2679;-6.029;-5.3678;1.6712;-8.0397;0.2612;-4.5398;1.5207;-0.4187;0.7092;0.4799;0.0;13.74;32.21;8.46;5.6;-4.31;131.35;0.0;59.757;39.46908;-0.341023;14.6;NaN;0.0;3.9;312.31;0 / 32;20413;2021-10-20 19:35:16:720
-0.9589;-10.9481;-4.737;-8.4084;2.3367;-4.4676;0.7891;2.7166;2.7375;-1.5456;-0.3238;0.0584;0.0;13.69;32.34;7.14;12.91;-9.81;146.27;0.0;62.652;39.46908;-0.341023;14.6;NaN;0.0;3.9;312.31;0 / 32;20463;2021-10-20 19:35:16:770
-0.294;-10.4569;-2.9891;-8.6143;1.0439;-4.5729;0.0217;3.071;-1.4501;-1.5456;-0.3238;0.0584;0.0;13.01;33.24;3.66;12.91;-9.81;146.27;0.0;62.652;39.46908;-0.341023;14.6;NaN;0.0;3.9;312.31;0 / 32;20513;2021-10-20 19:35:16:820
-0.294;-10.4569;-2.9891;-9.3182;-0.2634;-3.0406;0.0217;3.071;-1.4501;0.6644;1.2075;0.7198;0.0;13.01;33.24;3.66;12.91;-9.81;146.27;0.0;62.652;39.46908;-0.341023;14.6;NaN;0.0;3.9;312.31;0 / 32;20563;2021-10-20 19:35:16:870
0.323;-10.374;-2.4101;-9.3182;-0.2634;-3.0406;-1.3435;2.0479;-2.6953;0.6644;1.2075;0.7198;0.0;13.44;34.01;-0.36;6.83;1.54;108.07;0.0;62.652;39.46908;-0.341023;14.6;NaN;0.0;3.9;312.31;0 / 32;20612;2021-10-20 19:35:16:919
-0.864;-9.2869;-2.8309;-9.5481;-0.6273;-2.15;0.1789;0.62;-1.7405;1.2572;1.9612;0.4524;0.0;14.29;33.41;-4.69;13.9;3.67;102.69;0.0;62.652;39.46908;-0.341023;14.6;NaN;0.0;3.9;312.31;0 / 32;20663;2021-10-20 19:35:16:970
0.3371;-9.852;-1.412;-9.7061;-0.3208;-1.3838;-0.787;0.919;-2.627;1.0502;0.892;0.0348;0.0;14.29;33.41;-4.69;13.9;3.67;102.69;0.0;62.652;39.46908;-0.341023;14.6;NaN;0.0;3.9;312.31;0 / 32;20713;2021-10-20 19:35:17:020
1.043;-9.227;-1.749;-9.5768;-1.0774;-1.81;-0.787;0.919;-2.627;1.0502;0.892;0.0348;0.0;15.06;32.04;-8.16;13.9;3.67;102.69;0.0;62.652;39.46908;-0.341023;14.6;NaN;0.0;3.9;312.31;0 / 32;20763;2021-10-20 19:35:17:070
0.335;-9.462;-1.467;-9.6869;-0.3352;-1.494;-1.3316;-0.421;-2.1162;0.8795;0.3171;-0.1391;0.0;15.49;30.9;-10.26;21.73;1.96;98.77;0.0;61.273;39.46908;-0.341023;14.6;NaN;0.0;3.9;312.31;0 / 32;20813;2021-10-20 19:35:17:120
0.335;-9.462;-1.467;-9.6869;-0.3352;-1.494;-1.3316;-0.421;-2.1162;0.7321;0.3835;-0.2975;0.0;15.49;30.9;-10.26;21.73;1.96;98.77;0.0;61.273;39.46908;-0.341023;14.6;NaN;0.0;3.9;312.31;0 / 32;20863;2021-10-20 19:35:17:170
-0.0881;-9.852;-1.1201;-9.73;-0.9625;-0.7518;-0.0048;0.2524;-1.2997;0.7321;0.3835;-0.2975;0.0;16.39;29.51;-11.76;24.94;5.63;94.42;0.0;61.273;39.46908;-0.341023;14.6;NaN;0.0;3.9;312.31;0 / 32;20912;2021-10-20 19:35:17:219
0.897;-10.6631;-0.61;-9.7492;-0.5076;-0.9289;-0.6513;1.1347;-1.7574;0.6192;0.2329;-0.1977;0.0;16.39;29.51;-11.76;24.94;5.63;94.42;0.0;61.273;39.46908;-0.341023;14.6;NaN;0.0;3.9;312.31;0 / 32;20962;2021-10-20 19:35:17:269
0.521;-12.209;-1.266;-9.7061;-0.7661;-1.1732;-0.1907;2.6064;-0.7351;0.6135;0.2808;-0.0822;0.0;18.19;28.61;-12.71;24.94;5.63;94.42;0.0;61.273;39.46908;-0.341023;14.6;NaN;0.0;3.9;312.31;0 / 32;21012;2021-10-20 19:35:17:319
-0.078;-14.6989;-1.713;-9.6869;1.2163;-0.9337;-0.1907;2.6064;-0.7351;0.6135;0.2808;-0.0822;0.0;19.31;27.54;-13.56;31.34;4.48;96.89;0.0;61.273;39.46908;-0.341023;14.6;NaN;0.0;3.9;312.31;0 / 32;21062;2021-10-20 19:35:17:369
-1.2439;-12.975;-3.5801;-9.6869;1.2163;-0.9337;2.23;5.0063;-0.2107;0.3585;0.0375;0.1023;0.0;19.31;27.54;-13.56;31.34;4.48;96.89;0.0;57.46;39.46908;-0.341023;14.6;NaN;0.0;3.9;312.31;0 / 32;21112;2021-10-20 19:35:17:419
-1.2439;-12.975;-3.5801;-9.2177;-0.2155;-3.3375;-0.0807;3.0428;3.0395;0.3585;0.0375;0.1023;0.0;20.16;26.89;-12.84;35.51;1.26;109.9;0.0;57.46;39.46908;-0.341023;14.6;NaN;0.0;3.9;312.31;0 / 32;21163;2021-10-20 19:35:17:470
-0.5021;-13.696;-6.06;-9.3948;-0.4357;-2.7868;-0.0807;3.0428;3.0395;-0.2311;-0.4147;0.2248;0.0;20.81;27.9;-9.41;35.51;1.26;109.9;0.0;57.46;39.46908;-0.341023;14.6;NaN;0.0;3.9;312.31;0 / 32;21213;2021-10-20 19:35:17:520
2.747;-13.047;3.449;-9.5481;-0.9242;-2.0351;-1.9103;4.1659;-2.4715;-0.0727;0.1103;-0.0212;0.0;20.81;27.9;-9.41;35.51;1.26;109.9;0.0;57.46;39.46908;-0.341023;14.6;NaN;0.0;3.9;312.31;0 / 32;21263;2021-10-20 19:35:17:570
-0.318;-8.4589;-4.6099;-9.5481;-0.9242;-2.0351;0.5005;-1.1794;2.8003;-0.0727;0.1103;-0.0212;0.0;19.99;30.54;-4.09;15.52;5.41;102.03;0.0;57.46;39.46908;-0.341023;14.6;NaN;0.0;3.9;312.31;0 / 32;21313;2021-10-20 19:35:17:620
-2.352;-7.992;-1.8019;-8.8825;2.0925;-3.5961;2.5747;-1.6664;0.0561;0.0033;0.8889;-0.034;0.0;19.99;30.54;-4.09;15.52;5.41;102.03;0.0;57.46;39.46908;-0.341023;14.6;NaN;0.0;3.9;312.31;0 / 32;21363;2021-10-20 19:35:17:670
-1.354;-5.732;-2.7161;-9.0214;2.739;-2.6959;2.5747;-1.6664;0.0561;-0.4979;0.0525;0.6623;0.0;17.59;33.41;1.09;9.23;-12.32;112.04;0.0;57.46;39.46908;-0.341023;14.6;NaN;0.0;3.9;312.31;0 / 32;21412;2021-10-20 19:35:17:719
-0.7151;-4.94;-2.74;-8.3701;0.1053;-5.1092;0.0955;-3.9645;1.2969;-0.4979;0.0525;0.6623;0.0;16.91;34.44;5.89;6.24;-0.62;121.4;0.0;59.964;39.46908;-0.341023;14.6;NaN;0.0;3.9;312.31;0 / 32;21462;2021-10-20 19:35:17:769
-0.7151;-4.94;-2.74;-8.011;1.6137;-5.4205;0.0955;-3.9645;1.2969;-0.7468;-0.5327;0.5995;0.0;16.91;34.44;5.89;6.24;-0.62;121.4;0.0;59.964;39.46908;-0.341023;14.6;NaN;0.0;3.9;312.31;0 / 32;21513;2021-10-20 19:35:17:820
-0.9589;-4.275;-3.4151;-4.9225;0.7422;-8.4467;0.1684;-4.6827;0.3195;-1.3903;-0.593;-0.0074;0.0;17.64;33.84;9.54;6.24;-0.62;121.4;0.0;59.964;39.46908;-0.341023;14.6;NaN;0.0;3.9;312.31;0 / 32;21562;2021-10-20 19:35:17:869
-0.787;-3.87;-7.101;-4.9225;0.7422;-8.4467;-0.388;-5.8269;1.9908;-1.3903;-0.593;-0.0074;0.0;17.51;33.84;10.01;16.62;-4.34;149.77;0.0;59.964;39.46908;-0.341023;14.6;NaN;0.0;3.9;312.31;0 / 32;21613;2021-10-20 19:35:17:920
-2.348;-9.45;-3.963;-7.2018;2.7246;-6.0717;1.3403;0.9671;-0.8869;-1.9448;-1.2037;-0.3563;0.0;17.51;33.84;10.01;16.62;-4.34;149.77;0.0;59.964;39.46908;-0.341023;14.6;NaN;0.0;3.9;312.31;0 / 32;21663;2021-10-20 19:35:17:970
-4.739;-15.6521;-10.129;-9.1506;0.4501;-3.5003;1.3403;0.9671;-0.8869;-1.9448;-1.2037;-0.3563;0.0;16.56;34.74;7.44;16.62;-4.34;149.77;0.0;59.964;39.46908;-0.341023;14.6;NaN;0.0;3.9;312.31;0 / 32;21712;2021-10-20 19:35:18:019
0.6791;-6.984;-2.1469;-9.3757;-2.4134;-1.5754;3.6328;7.3509;5.0108;-0.2652;0.0712;0.2852;0.0;16.56;34.74;7.44;16.62;-4.34;149.77;0.0;62.018;39.46908;-0.341023;14.6;NaN;0.0;3.9;312.31;0 / 32;21763;2021-10-20 19:35:18:070
0.6791;-6.984;-2.1469;-9.6007;0.996;-1.743;-0.3196;-1.936;-2.0014;0.8767;1.6364;0.4737;0.0;15.84;35.51;3.19;359.43;14.24;99.54;0.0;62.018;39.46908;-0.341023;14.6;NaN;0.0;3.9;312.31;0 / 32;21813;2021-10-20 19:35:18:120
0.3491;-11.1041;-1.6391;-9.3948;0.1053;-2.8108;-1.8107;2.2986;-2.0826;0.8767;1.6364;0.4737;0.0;16.26;35.4;-1.14;6.03;-5.83;100.29;0.0;62.018;39.46908;-0.341023;14.6;NaN;0.0;3.9;312.31;0 / 32;21862;2021-10-20 19:35:18:169
-1.134;-8.9449;-3.4939;-9.3948;0.1053;-2.8108;-1.8107;2.2986;-2.0826;1.0571;1.2917;-0.077;0.0;16.26;35.4;-1.14;6.03;-5.83;100.29;0.0;62.018;39.46908;-0.341023;14.6;NaN;0.0;3.9;312.31;0 / 32;21912;2021-10-20 19:35:18:219
2.424;-10.711;-1.637;-9.5481;-1.5371;-1.6328;-0.1265;0.0727;-1.3763;0.8951;0.4539;-0.272;0.0;17.51;34.5;-4.69;14.01;9.02;99.7;0.0;62.018;39.46908;-0.341023;14.6;NaN;0.0;3.9;312.31;0 / 32;21962;2021-10-20 19:35:18:269
-0.2359;-8.703;-0.971;-9.596;-1.4317;-1.4174;-1.5129;0.0209;-2.0305;0.8951;0.4539;-0.272;0.0;17.51;34.5;-4.69;14.01;9.02;99.7;0.0;62.018;39.46908;-0.341023;14.6;NaN;0.0;3.9;312.31;0 / 32;22013;2021-10-20 19:35:18:320
-0.5719;-9.7939;-1.754;-9.6103;1.0534;-1.6472;-1.5129;0.0209;-2.0305;0.6897;0.1002;-0.336;0.0;18.66;33.84;-7.56;18.99;8.4;98.4;0.0;60.24;39.46908;-0.341023;14.6;NaN;0.0;3.9;312.31;0 / 32;22063;2021-10-20 19:35:18:370
-0.5719;-9.7939;-1.754;-9.7923;-0.4214;-0.2729;0.6944;0.4211;-1.1407;0.6897;0.1002;-0.336;0.0;18.71;33.79;-10.01;20.14;-6.17;99.73;0.0;60.24;39.46908;-0.341023;14.6;NaN;0.0;3.9;312.31;0 / 32;22113;2021-10-20 19:35:18:420
0.524;-9.866;0.0551;-9.7827;0.0335;-0.6512;-0.3547;0.3746;-2.5345;0.6938;-0.0696;-0.0727;0.0;18.71;33.79;-10.01;20.14;-6.17;99.73;0.0;60.24;39.46908;-0.341023;14.6;NaN;0.0;3.9;312.31;0 / 32;22162;2021-10-20 19:35:18:469
-0.052;-11.166;-0.308;-9.7827;0.0335;-0.6512;0.1113;1.5675;-1.7603;0.7508;-0.1757;0.0561;0.0;19.61;32.64;-12.36;21.91;-0.2;93.81;0.0;60.24;39.46908;-0.341023;14.6;NaN;0.0;3.9;312.31;0 / 32;22212;2021-10-20 19:35:18:519
1.785;-14.103;-1.744;-9.6774;-1.0678;-1.1779;-1.6512;4.4358;0.0664;0.7508;-0.1757;0.0561;0.0;20.51;30.79;-13.99;21.91;-0.2;93.81;0.0;60.24;39.46908;-0.341023;14.6;NaN;0.0;3.9;312.31;0 / 32;22262;2021-10-20 19:35:18:569
-3.987;-12.887;-3.3889;-9.5193;1.9776;-1.2977;-1.6512;4.4358;0.0664;0.4683;-0.1908;-0.1841;0.0;20.51;30.79;-13.99;21.91;-0.2;93.81;0.0;60.24;39.46908;-0.341023;14.6;NaN;0.0;3.9;312.31;0 / 32;22313;2021-10-20 19:35:18:620
-0.313;-13.7029;-4.581;-9.2799;-0.1149;-3.1603;1.6705;2.7294;2.4852;-0.1738;-0.7685;0.1104;0.0;21.49;29.7;-13.39;25.32;-11.63;97.76;0.0;60.24;39.46908;-0.341023;14.6;NaN;0.0;3.9;312.31;0 / 32;22363;2021-10-20 19:35:18:670
-0.313;-13.7029;-4.581;-9.6055;0.2682;-1.968;0.7074;3.915;2.6703;-0.1738;-0.7685;0.1104;0.0;21.49;29.7;-13.39;25.32;-11.63;97.76;0.0;56.563;39.46908;-0.341023;14.6;NaN;0.0;3.9;312.31;0 / 32;22412;2021-10-20 19:35:18:719
-0.141;-13.284;1.022;-9.7013;-1.403;0.3112;-1.2368;2.9896;-3.8986;-0.3164;-0.6075;0.2162;0.0;22.56;30.49;-9.71;25.26;-1.57;101.58;0.0;56.563;39.46908;-0.341023;14.6;NaN;0.0;3.9;312.31;0 / 32;22462;2021-10-20 19:35:18:769
0.507;-9.816;-3.2;-9.7013;-1.403;0.3112;-1.2368;2.9896;-3.8986;0.1353;0.6102;-0.1001;0.0;21.79;32.89;-3.41;4.44;8.22;88.16;0.0;56.563;39.46908;-0.341023;14.6;NaN;0.0;3.9;312.31;0 / 32;22513;2021-10-20 19:35:18:820
-4.662;-8.1161;-3.039;-8.3797;2.5857;-4.391;2.8422;0.1025;3.3678;0.1353;0.6102;-0.1001;0.0;21.79;32.89;-3.41;4.44;8.22;88.16;0.0;56.563;39.46908;-0.341023;14.6;NaN;0.0;3.9;312.31;0 / 32;22563;2021-10-20 19:35:18:870
-0.7391;-6.283;-2.3599;-9.2416;2.6719;-1.901;0.3432;-3.3579;0.5821;0.0732;0.9078;0.5922;0.0;20.51;34.5;3.19;4.44;8.22;88.16;0.0;56.563;39.46908;-0.341023;14.6;NaN;0.0;3.9;312.31;0 / 32;22613;2021-10-20 19:35:18:920
-0.686;-3.942;-2.297;-8.6526;1.0056;-4.5059;-0.0959;-5.5578;-0.0419;0.0732;0.9078;0.5922;0.0;21.24;32.94;8.51;2.8;-5.89;117.51;0.0;56.563;39.46908;-0.341023;14.6;NaN;0.0;3.9;312.31;0 / 32;22662;2021-10-20 19:35:18:969
-1.311;-4.059;-3.351;-8.1211;2.1021;-5.0757;-0.0959;-5.5578;-0.0419;0.0732;0.9078;0.5922;0.0;21.24;32.94;8.51;2.8;-5.89;117.51;0.0;60.532;39.46908;-0.341023;14.6;NaN;0.0;3.9;312.31;0 / 32;22713;2021-10-20 19:35:19:020
-1.311;-4.059;-3.351;-8.1211;2.1021;-5.0757;-0.4417;-5.9127;0.4082;-1.0477;-0.54;0.6859;0.0;23.46;30.54;12.54;1.86;-12.38;122.01;0.0;60.532;39.46908;-0.341023;14.6;NaN;0.0;3.9;312.31;0 / 32;22763;2021-10-20 19:35:19:070
-1.493;-2.858;-5.634;-4.3096;2.2458;-8.5186;0.55;-4.643;3.3472;-1.5828;-0.1503;0.051;0.0;24.24;29.94;13.56;1.86;-12.38;122.01;0.0;60.532;39.46908;-0.341023;14.6;NaN;0.0;3.9;312.31;0 / 32;22812;2021-10-20 19:35:19:119
-5.7799;-10.539;-8.119;-7.1251;3.9073;-5.4923;0.55;-4.643;3.3472;-1.5828;-0.1503;0.051;0.0;24.24;29.94;13.56;1.86;-12.38;122.01;0.0;60.532;39.46908;-0.341023;14.6;NaN;0.0;3.9;312.31;0 / 32;22862;2021-10-20 19:35:19:169
-0.5981;-8.9111;-4.7869;-6.8857;3.3136;-6.1435;-6.087;-0.341;-3.5591;-0.8174;0.7429;0.4407;0.0;24.06;30.79;11.94;7.53;-23.48;127.63;0.0;60.532;39.46908;-0.341023;14.6;NaN;0.0;3.9;312.31;0 / 32;22912;2021-10-20 19:35:19:219
2.568;-9.6701;-0.481;-6.8857;3.3136;-6.1435;0.7152;7.0229;-0.6233;-0.8174;0.7429;0.4407;0.0;24.06;30.79;11.94;7.53;-23.48;127.63;0.0;60.532;39.46908;-0.341023;14.6;NaN;0.0;3.9;312.31;0 / 32;22963;2021-10-20 19:35:19:270
-0.246;-10.0579;-1.6181;-9.0836;-0.6464;-3.6392;0.7152;7.0229;-0.6233;0.7325;1.9723;0.9567;0.0;23.46;32.89;8.76;0.36;3.78;111.83;0.0;61.445;39.46908;-0.341023;14.6;NaN;0.0;3.9;312.31;0 / 32;23012;2021-10-20 19:35:19:319
-0.246;-10.0579;-1.6181;-9.5433;-0.7566;-2.1261;-0.8413;1.6632;-3.3548;1.0189;1.6061;0.5778;0.0;22.74;34.91;4.91;0.21;4.42;102.56;0.0;61.445;39.46908;-0.341023;14.6;NaN;0.0;3.9;312.31;0 / 32;23063;2021-10-20 19:35:19:370
-1.804;-10.7539;-2.589;-9.3134;1.9728;-2.3607;1.2329;0.6533;-1.8634;1.0189;1.6061;0.5778;0.0;22.74;34.91;4.91;0.21;4.42;102.56;0.0;61.445;39.46908;-0.341023;14.6;NaN;0.0;3.9;312.31;0 / 32;23112;2021-10-20 19:35:19:419
-0.624;-9.8111;-1.5821;-9.6247;-1.8148;-0.4549;1.2329;0.6533;-1.8634;1.067;0.7877;0.2855;0.0;23.46;35.64;2.21;5.32;-11.6;104.22;0.0;61.445;39.46908;-0.341023;14.6;NaN;0.0;3.9;312.31;0 / 32;23163;2021-10-20 19:35:19:470
3.54;-9.1;0.0281;-9.3901;-2.7102;-0.7901;-3.8263;1.0903;-3.3444;1.086;0.7575;-0.2439;0.0;24.36;35.29;0.49;4.26;16.05;94.81;0.0;61.445;39.46908;-0.341023;14.6;NaN;0.0;3.9;312.31;0 / 32;23212;2021-10-20 19:35:19:519
0.8591;-9.033;-0.864;-9.3901;-2.7102;-0.7901;-0.7493;-0.6144;-2.13;1.086;0.7575;-0.2439;0.0;24.36;35.29;0.49;4.26;16.05;94.81;0.0;61.445;39.46908;-0.341023;14.6;NaN;0.0;3.9;312.31;0 / 32;23262;2021-10-20 19:35:19:569
0.809;-9.852;-0.3971;-9.6678;-1.1827;-1.1301;-0.7493;-0.6144;-2.13;0.9845;0.7554;-0.7395;0.0;25.14;35.21;-1.09;6.99;6.93;96.67;0.0;61.445;39.46908;-0.341023;14.6;NaN;0.0;3.9;312.31;0 / 32;23312;2021-10-20 19:35:19:619
0.122;-10.512;0.038;-9.7971;0.182;-0.431;-0.3998;0.3091;-1.8467;0.9845;0.7554;-0.7395;0.0;25.14;35.21;-1.09;6.99;6.93;96.67;0.0;61.873;39.46908;-0.341023;14.6;NaN;0.0;3.9;312.31;0 / 32;23363;2021-10-20 19:35:19:670
0.122;-10.512;0.038;-9.7588;-0.9098;0.34;-0.4886;1.2934;-2.0799;0.6863;0.1695;-0.0802;0.0;25.99;34.8;-2.89;6.99;6.93;96.67;0.0;61.873;39.46908;-0.341023;14.6;NaN;0.0;3.9;312.31;0 / 32;23412;2021-10-20 19:35:19:719
1.0841;-11.712;0.308;-9.7827;-0.6177;0.2825;-0.4886;1.2934;-2.0799;0.6996;0.1743;0.0452;0.0;26.46;33.6;-4.14;5.74;3.61;88.35;0.0;61.873;39.46908;-0.341023;14.6;NaN;0.0;3.9;312.31;0 / 32;23462;2021-10-20 19:35:19:769
-0.6;-12.705;-1.271;-9.6534;0.3831;-1.6807;0.1488;3.1334;-1.2741;0.6996;0.1743;0.0452;0.0;26.46;33.6;-4.14;5.74;3.61;88.35;0.0;61.873;39.46908;-0.341023;14.6;NaN;0.0;3.9;312.31;0 / 32;23512;2021-10-20 19:35:19:819
1.074;-12.762;-1.23;-9.5193;1.7909;-1.5227;-0.5969;2.9916;0.3579;0.4641;-0.1121;0.07;0.0;28.09;32.59;-4.86;15.96;-2.24;99.88;0.0;61.873;39.46908;-0.341023;14.6;NaN;0.0;3.9;312.31;0 / 32;23562;2021-10-20 19:35:19:869
-0.789;-11.934;-3.135;-9.5193;1.7909;-1.5227;-0.5969;2.9916;0.3579;-0.0861;-0.6857;0.2758;0.0;30.06;31.8;-3.79;13.3;-10.52;99.09;0.0;61.873;39.46908;-0.341023;14.6;NaN;0.0;3.9;312.31;0 / 32;23612;2021-10-20 19:35:19:919
-3.185;-12.954;-1.421;-9.6247;-0.0862;-1.8818;0.1383;2.3553;1.378;-0.0861;-0.6857;0.2758;0.0;30.06;31.8;-3.79;13.3;-10.52;99.09;0.0;58.289;39.46908;-0.341023;14.6;NaN;0.0;3.9;312.31;0 / 32;23663;2021-10-20 19:35:19:970
-3.185;-12.954;-1.421;-9.3661;2.7916;-0.8284;4.0675;3.9648;0.0477;-0.2864;-0.6329;0.2749;0.0;31.09;32.34;1.01;13.3;-10.52;99.09;0.0;58.289;39.46908;-0.341023;14.6;NaN;0.0;3.9;312.31;0 / 32;23713;2021-10-20 19:35:20:020
-1.6819;-9.878;-1.831;-9.6486;1.403;-1.0391;4.0675;3.9648;0.0477;-0.2864;-0.6329;0.2749;0.0;31.09;32.34;1.01;13.3;-10.52;99.09;0.0;58.289;39.46908;-0.341023;14.6;NaN;0.0;3.9;312.31;0 / 32;23763;2021-10-20 19:35:20:070
-0.483;-7.812;-2.688;-8.2456;3.1699;-4.2617;0.8245;-0.9969;-0.3312;-0.1192;0.0305;0.6405;0.0;31.31;32.64;6.24;355.93;-8.23;96.15;0.0;58.289;39.46908;-0.341023;14.6;NaN;0.0;3.9;312.31;0 / 32;23812;2021-10-20 19:35:20:119
-3.8201;-7.6879;-1.747;-8.2456;3.1699;-4.2617;3.1543;-1.7318;2.1102;-0.2832;0.518;0.7455;0.0;30.49;31.8;7.74;355.93;-8.23;96.15;0.0;58.289;39.46908;-0.341023;14.6;NaN;0.0;3.9;312.31;0 / 32;23862;2021-10-20 19:35:20:169
-0.493;-7.149;-2.6831;-8.9112;3.3471;-2.3607;0.2419;-2.1471;1.2115;-0.2832;0.518;0.7455;0.0;30.49;31.8;7.74;355.93;-8.23;96.15;0.0;58.289;39.46908;-0.341023;14.6;NaN;0.0;3.9;312.31;0 / 32;23913;2021-10-20 19:35:20:220
-1.0721;-4.777;-1.1171;-9.256;0.34;-3.2322;0.2419;-2.1471;1.2115;-0.5688;0.1647;0.6163;0.0;29.94;31.09;7.39;5.85;-1.99;109.25;0.0;59.043;39.46908;-0.341023;14.6;NaN;0.0;3.9;312.31;0 / 32;23963;2021-10-20 19:35:20:270
-1.0721;-4.777;-1.1171;-9.165;2.2745;-2.6576;-0.6206;-4.6652;-0.9735;-0.3264;0.2493;0.2777;0.0;29.94;31.09;7.39;5.85;-1.99;109.25;0.0;59.043;39.46908;-0.341023;14.6;NaN;0.0;3.9;312.31;0 / 32;24012;2021-10-20 19:35:20:319
-0.05;-4.4659;-2.003;-8.7724;-0.3448;-4.3718;-1.6176;-4.9224;-0.3444;-0.3264;0.2493;0.2777;0.0;28.99;30.0;6.54;2.15;-13.41;106.17;0.0;59.043;39.46908;-0.341023;14.6;NaN;0.0;3.9;312.31;0 / 32;24062;2021-10-20 19:35:20:369
-0.5359;-4.959;-3.3431;-7.762;2.0877;-5.6168;-0.903;-4.372;0.6782;-0.5369;0.0785;-0.3916;0.0;26.89;28.99;4.61;15.1;2.01;116.49;0.0;59.043;39.46908;-0.341023;14.6;NaN;0.0;3.9;312.31;0 / 32;24113;2021-10-20 19:35:20:420
-2.238;-8.514;-7.8941;-6.6798;0.565;-7.1587;-0.903;-4.372;0.6782;-1.5995;-1.2797;-0.6274;0.0;26.89;28.99;4.61;15.1;2.01;116.49;0.0;59.043;39.46908;-0.341023;14.6;NaN;0.0;3.9;312.31;0 / 32;24163;2021-10-20 19:35:20:470
0.789;-12.399;-11.7881;-6.6798;0.565;-7.1587;-0.3264;1.911;8.1995;-1.5995;-1.2797;-0.6274;0.0;24.96;27.84;3.49;15.1;2.01;116.49;0.0;59.043;39.46908;-0.341023;14.6;NaN;0.0;3.9;312.31;0 / 32;24212;2021-10-20 19:35:20:519
-4.308;-12.111;-7.7839;-7.5417;0.9337;-6.201;0.451;3.044;5.2381;-1.6471;-1.1716;-0.9714;0.0;21.96;25.8;2.64;22.83;-5.46;129.43;0.0;59.043;39.46908;-0.341023;14.6;NaN;0.0;3.9;312.31;0 / 32;24262;2021-10-20 19:35:20:569
-4.308;-12.111;-7.7839;-8.9447;2.9688;-2.7102;0.451;3.044;5.2381;-1.6471;-1.1716;-0.9714;0.0;21.96;25.8;2.64;22.83;-5.46;129.43;0.0;60.178;39.46908;-0.341023;14.6;NaN;0.0;3.9;312.31;0 / 32;24312;2021-10-20 19:35:20:619
-0.356;-11.5541;0.4781;-9.6822;0.0862;-1.5514;1.4347;8.9305;-8.7286;-0.1206;-0.5486;-0.1519;0.0;17.21;22.44;3.66;2.4;-17.62;106.86;0.0;60.178;39.46908;-0.341023;14.6;NaN;0.0;3.9;312.31;0 / 32;24363;2021-10-20 19:35:20:670
-5.9621;-3.6709;0.15;-9.3661;2.9066;0.0527;4.6639;-5.0907;-4.3768;1.962;1.2944;1.3971;0.0;17.21;22.44;3.66;2.4;-17.62;106.86;0.0;60.178;39.46908;-0.341023;14.6;NaN;0.0;3.9;312.31;0 / 32;24412;2021-10-20 19:35:20:719
6.017;-15.7091;1.412;-9.3326;-3.0119;0.1245;-7.0929;6.4451;-4.4456;1.962;1.2944;1.3971;0.0;11.51;19.74;6.84;342.67;-17.24;89.68;0.0;60.178;39.46908;-0.341023;14.6;NaN;0.0;3.9;312.31;0 / 32;24463;2021-10-20 19:35:20:770
-4.971;-7.575;0.5741;-9.3326;-3.0119;0.1245;-7.0929;6.4451;-4.4456;2.0635;3.0315;-0.2535;0.0;7.14;18.6;9.71;327.71;17.88;89.24;0.0;60.178;39.46908;-0.341023;14.6;NaN;0.0;3.9;312.31;0 / 32;24513;2021-10-20 19:35:20:820
1.5431;-12.2449;2.051;-8.5425;4.7836;-0.5938;4.41;-1.9866;-2.6899;1.2015;3.5936;0.1224;0.0;7.14;18.6;9.71;327.71;17.88;89.24;0.0;60.178;39.46908;-0.341023;14.6;NaN;0.0;3.9;312.31;0 / 32;24563;2021-10-20 19:35:20:870
1.5431;-12.2449;2.051;-9.1171;-2.8539;2.217;-1.7727;2.5554;-3.5373;1.2015;3.5936;0.1224;0.0;3.54;18.54;12.11;328.31;-29.19;93.98;0.0;61.823;39.46908;-0.341023;14.6;NaN;0.0;3.9;312.31;0 / 32;24612;2021-10-20 19:35:20:919
2.175;-10.95;1.8881;-9.7157;-0.249;1.3024;-0.1313;1.3043;-2.1523;1.1132;4.2511;0.015;0.0;-0.71;18.3;13.91;322.74;1.46;82.36;0.0;61.823;39.46908;-0.341023;14.6;NaN;0.0;3.9;312.31;0 / 32;24662;2021-10-20 19:35:20:969
-0.2839;-9.8299;2.364;-9.5433;-0.8571;2.0925;-0.1313;1.3043;-2.1523;0.7635;3.5427;-0.7121;0.0;-0.71;18.3;13.91;322.74;1.46;82.36;0.0;61.823;39.46908;-0.341023;14.6;NaN;0.0;3.9;312.31;0 / 32;24712;2021-10-20 19:35:21:019
5.0291;-10.74;1.6391;-8.9783;-3.8834;0.6991;-2.8692;1.4417;-2.0234;0.7635;3.5427;-0.7121;0.0;-6.41;17.04;14.59;322.74;1.46;82.36;0.0;61.823;39.46908;-0.341023;14.6;NaN;0.0;3.9;312.31;0 / 32;24763;2021-10-20 19:35:21:070
2.115;-8.456;0.732;-8.9783;-3.8834;0.6991;-1.6254;-0.5449;-0.3507;0.1183;3.4651;-0.7419;0.0;-12.06;15.11;13.86;325.48;23.33;85.55;0.0;61.823;39.46908;-0.341023;14.6;NaN;0.0;3.9;312.31;0 / 32;24812;2021-10-20 19:35:21:119
1.254;-6.805;1.809;-8.9495;-3.0933;2.557;-0.8977;-2.6119;-1.4303;0.1183;3.4651;-0.7419;0.0;-12.06;15.11;13.86;325.48;23.33;85.55;0.0;61.823;39.46908;-0.341023;14.6;NaN;0.0;3.9;312.31;0 / 32;24862;2021-10-20 19:35:21:169
1.254;-6.805;1.809;-9.7348;-0.5794;1.0151;-0.8977;-2.6119;-1.4303;-0.325;3.0168;-1.1187;0.0;-16.01;14.34;12.54;337.18;18.38;74.05;0.0;60.187;39.46908;-0.341023;14.6;NaN;0.0;3.9;312.31;0 / 32;24912;2021-10-20 19:35:21:219
0.689;-11.3501;-0.4541;-9.7348;-0.5794;1.0151;1.8491;0.1872;0.5956;-0.4377;3.5893;-0.161;0.0;-16.01;14.34;12.54;337.18;18.38;74.05;0.0;60.187;39.46908;-0.341023;14.6;NaN;0.0;3.9;312.31;0 / 32;24963;2021-10-20 19:35:21:270
3.5351;-14.78;-2.2849;-9.6391;-1.5371;-0.9816;-1.7216;5.1776;3.1342;-0.4377;3.5893;-0.161;0.0;-18.79;16.39;10.99;337.18;18.38;74.05;0.0;60.187;39.46908;-0.341023;14.6;NaN;0.0;3.9;312.31;0 / 32;25012;2021-10-20 19:35:21:319
-0.952;-14.826;-2.3741;-9.6869;-1.4413;-0.5555;-1.7216;5.1776;3.1342;-0.5505;3.5423;-0.0621;0.0;-20.51;19.91;10.61;331.85;8.45;93.28;0.0;60.187;39.46908;-0.341023;14.6;NaN;0.0;3.9;312.31;0 / 32;25063;2021-10-20 19:35:21:370
-0.976;-11.209;-1.182;-9.3518;2.1069;-2.0734;2.5387;5.1621;2.969;-1.1498;3.2575;0.531;0.0;-20.51;19.91;10.61;331.85;8.45;93.28;0.0;60.187;39.46908;-0.341023;14.6;NaN;0.0;3.9;312.31;0 / 32;25113;2021-10-20 19:35:21:420
-0.976;-11.209;-1.182;-9.8019;-0.3543;-0.0527;0.757;3.8517;0.3725;-1.1498;3.2575;0.531;0.0;-22.91;22.39;13.39;331.85;8.45;93.28;0.0;60.187;39.46908;-0.341023;14.6;NaN;0.0;3.9;312.31;0 / 32;25162;2021-10-20 19:35:21:469
-0.4091;-14.5549;0.981;-9.6582;1.2977;1.087;2.0274;3.5786;-1.7364;-0.4927;2.3822;0.7849;0.0;-26.16;22.2;19.39;318.58;-7.6;83.58;0.0;60.187;39.46908;-0.341023;14.6;NaN;0.0;3.9;312.31;0 / 32;25213;2021-10-20 19:35:21:520
-1.333;-13.7321;1.383;-9.6582;1.2977;1.087;2.0274;3.5786;-1.7364;-0.4927;2.3822;0.7849;0.0;-26.16;22.2;19.39;318.58;-7.6;83.58;0.0;57.9;39.46908;-0.341023;14.6;NaN;0.0;3.9;312.31;0 / 32;25263;2021-10-20 19:35:21:570
-0.153;-13.8919;-4.425;-9.347;0.2729;-2.9688;0.6334;3.6668;4.2913;0.1177;0.9291;0.472;0.0;-28.39;19.91;25.99;300.35;-1.59;107.62;0.0;57.9;39.46908;-0.341023;14.6;NaN;0.0;3.9;312.31;0 / 32;25312;2021-10-20 19:35:21:619
-2.431;-7.697;-1.0219;-9.5193;1.743;-1.5897;0.6334;3.6668;4.2913;-0.4613;0.2897;0.4737;0.0;-28.39;19.91;25.99;300.35;-1.59;107.62;0.0;57.9;39.46908;-0.341023;14.6;NaN;0.0;3.9;312.31;0 / 32;25362;2021-10-20 19:35:21:669
2.496;-7.08;-3.114;-9.1937;0.4118;-3.3998;2.3122;-2.1059;0.7214;-0.4613;0.2897;0.4737;0.0;-28.44;14.51;32.76;286.23;-10.24;99.48;0.0;57.9;39.46908;-0.341023;14.6;NaN;0.0;3.9;312.31;0 / 32;25413;2021-10-20 19:35:21:720
2.496;-7.08;-3.114;-7.7955;-2.308;-5.4875;-3.0078;-3.3869;2.2357;-1.027;-0.0212;0.2124;0.0;-26.34;7.14;38.76;277.93;13.61;125.14;0.0;57.9;39.46908;-0.341023;14.6;NaN;0.0;3.9;312.31;0 / 32;25462;2021-10-20 19:35:21:769
-0.162;-2.891;-2.496;-8.6862;0.5171;-4.5298;0.4783;-5.9046;0.2573;-1.2137;-0.5186;-0.3413;0.0;-26.34;7.14;38.76;277.93;13.61;125.14;0.0;57.9;39.46908;-0.341023;14.6;NaN;0.0;3.9;312.31;0 / 32;25513;2021-10-20 19:35:21:820
-0.519;-3.4421;-2.6659;-8.6862;0.5171;-4.5298;0.4783;-5.9046;0.2573;-1.2137;-0.5186;-0.3413;0.0;-21.79;1.2;42.49;271.2;-3.02;117.54;0.0;57.9;39.46908;-0.341023;14.6;NaN;0.0;3.9;312.31;0 / 32;25563;2021-10-20 19:35:21:870
-0.378;-3.906;-5.7731;-5.794;1.2306;-7.8147;0.9645;-5.9816;1.45;-1.9833;-0.5749;-0.286;0.0;-16.56;-1.39;44.16;273.12;-7.21;143.45;0.0;63.067;39.46908;-0.341023;14.6;NaN;0.0;3.9;312.31;0 / 32;25612;2021-10-20 19:35:21:919
-5.198;-7.8769;-8.523;-5.9137;0.6847;-7.7955;0.5179;-3.8601;2.5713;-1.9833;-0.5749;-0.286;0.0;-16.56;-1.39;44.16;273.12;-7.21;143.45;0.0;63.067;39.46908;-0.341023;14.6;NaN;0.0;3.9;312.31;0 / 32;25662;2021-10-20 19:35:21:969
-0.0161;-8.98;-1.1771;-8.8011;-4.3287;0.0144;-4.8162;0.5812;-5.0227;-2.1121;-0.6527;0.439;0.0;-14.34;0.6;43.69;279.18;26.19;89.91;0.0;63.067;39.46908;-0.341023;14.6;NaN;0.0;3.9;312.31;0 / 32;25713;2021-10-20 19:35:22:020
3.504;-13.761;-1.7419;-8.8729;1.2833;-3.9744;-4.8162;0.5812;-5.0227;-0.6347;-1.1428;-0.2288;0.0;-14.34;0.6;43.69;279.18;26.19;89.91;0.0;63.067;39.46908;-0.341023;14.6;NaN;0.0;3.9;312.31;0 / 32;25763;2021-10-20 19:35:22:070
3.504;-13.761;-1.7419;-7.7476;4.3;-4.2042;-4.1285;5.4571;-3.4563;-0.6347;-1.1428;-0.2288;0.0;-15.84;7.39;41.89;279.18;26.19;89.91;0.0;63.067;39.46908;-0.341023;14.6;NaN;0.0;3.9;312.31;0 / 32;25812;2021-10-20 19:35:22:119
-1.2371;-8.222;-1.555;-7.7476;4.3;-4.2042;-2.5398;2.0504;-3.1975;0.6519;-0.9927;-0.4203;0.0;-17.46;15.79;39.24;290.66;-26.0;118.49;0.0;63.067;39.46908;-0.341023;14.6;NaN;0.0;3.9;312.31;0 / 32;25862;2021-10-20 19:35:22:169
1.311;-11.118;-2.58;-9.4906;-1.1157;-2.1979;-2.5398;2.0504;-3.1975;1.0924;-0.5158;-0.6544;0.0;-17.46;15.79;39.24;290.66;-26.0;118.49;0.0;62.333;39.46908;-0.341023;14.6;NaN;0.0;3.9;312.31;0 / 32;25913;2021-10-20 19:35:22:220
0.1571;-8.9899;-1.9339;-9.5912;-0.158;-2.0494;-0.1778;0.7434;-1.5476;1.0924;-0.5158;-0.6544;0.0;-18.71;22.99;35.64;301.41;6.53;103.04;0.0;62.333;39.46908;-0.341023;14.6;NaN;0.0;3.9;312.31;0 / 32;25962;2021-10-20 19:35:22:269
1.4501;-10.4861;-0.9311;-9.5912;-0.158;-2.0494;-2.1011;1.8733;-1.8013;0.9771;-0.206;-0.6563;0.0;-20.64;28.69;30.79;310.1;0.92;102.06;0.0;62.333;39.46908;-0.341023;14.6;NaN;0.0;3.9;312.31;0 / 32;26013;2021-10-20 19:35:22:320
1.4501;-10.4861;-0.9311;-9.7444;-0.2873;-1.0678;-2.1011;1.8733;-1.8013;0.9771;-0.206;-0.6563;0.0;-20.64;28.69;30.79;310.1;0.92;102.06;0.0;62.333;39.46908;-0.341023;14.6;NaN;0.0;3.9;312.31;0 / 32;26063;2021-10-20 19:35:22:370
-0.957;-8.4011;-1.323;-9.7492;-0.5555;-0.9098;1.2083;-0.988;-1.295;0.7146;0.3648;-0.1353;0.0;-22.26;32.59;26.29;319.9;1.68;96.25;0.0;62.333;39.46908;-0.341023;14.6;NaN;0.0;3.9;312.31;0 / 32;26113;2021-10-20 19:35:22:420
0.366;-9.857;-0.4519;-9.7492;-0.5555;-0.9098;-0.2199;0.3654;-2.0489;0.645;0.6953;0.0234;0.0;-22.26;32.59;26.29;319.9;1.68;96.25;0.0;62.333;39.46908;-0.341023;14.6;NaN;0.0;3.9;312.31;0 / 32;26163;2021-10-20 19:35:22:470
1.046;-11.499;-2.013;-9.754;-0.589;-0.8188;-0.8423;1.9238;-0.1226;0.645;0.6953;0.0234;0.0;-23.64;35.7;22.44;319.9;1.68;96.25;0.0;62.333;39.46908;-0.341023;14.6;NaN;0.0;3.9;312.31;0 / 32;26213;2021-10-20 19:35:22:520
1.778;-15.008;-2.984;-9.5577;-1.1301;-1.901;-0.8423;1.9238;-0.1226;0.4674;0.9551;0.0201;0.0;-24.71;38.94;18.54;330.25;6.61;101.25;0.0;59.128;39.46908;-0.341023;14.6;NaN;0.0;3.9;312.31;0 / 32;26263;2021-10-20 19:35:22:570
-3.614;-13.629;-3.535;-9.1985;2.4373;-2.3846;0.6987;5.582;0.69;0.0488;1.5748;0.3;0.0;-24.71;38.94;18.54;330.25;6.61;101.25;0.0;59.128;39.46908;-0.341023;14.6;NaN;0.0;3.9;312.31;0 / 32;26313;2021-10-20 19:35:22:620
1.6031;-15.024;-2.348;-9.1985;2.4373;-2.3846;1.8625;5.4416;3.103;0.0488;1.5748;0.3;0.0;-23.64;40.09;17.04;326.56;-14.39;104.53;0.0;59.128;39.46908;-0.341023;14.6;NaN;0.0;3.9;312.31;0 / 32;26362;2021-10-20 19:35:22:669
1.6031;-15.024;-2.348;-9.6391;-1.0247;-1.5036;-2.5213;5.0317;-2.2202;-0.1847;1.9155;0.6423;0.0;-23.64;40.09;17.04;326.56;-14.39;104.53;0.0;59.128;39.46908;-0.341023;14.6;NaN;0.0;3.9;312.31;0 / 32;26412;2021-10-20 19:35:22:719
0.303;-9.914;0.6191;-9.7827;-0.2969;0.6033;-2.5213;5.0317;-2.2202;-0.1847;1.9155;0.6423;0.0;-22.61;37.8;20.59;328.62;6.0;98.87;0.0;59.128;39.46908;-0.341023;14.6;NaN;0.0;3.9;312.31;0 / 32;26463;2021-10-20 19:35:22:770
-2.003;-10.067;-6.402;-8.1594;1.6233;-5.1906;0.5575;-1.3755;3.0735;0.2679;0.5001;-0.0065;0.0;-23.34;33.19;27.36;312.09;-9.53;122.46;0.0;59.128;39.46908;-0.341023;14.6;NaN;0.0;3.9;312.31;0 / 32;26513;2021-10-20 19:35:22:820
-1.206;-7.0339;-1.361;-9.5002;1.6185;-1.8244;0.5575;-1.3755;3.0735;0.1238;-0.3063;0.1114;0.0;-23.34;33.19;27.36;312.09;-9.53;122.46;0.0;59.819;39.46908;-0.341023;14.6;NaN;0.0;3.9;312.31;0 / 32;26562;2021-10-20 19:35:22:869
0.426;-5.7251;-2.9561;-9.5002;1.6185;-1.8244;1.3131;-2.6204;-0.4021;0.1238;-0.3063;0.1114;0.0;-21.11;25.91;35.64;300.72;-9.5;100.87;0.0;59.819;39.46908;-0.341023;14.6;NaN;0.0;3.9;312.31;0 / 32;26612;2021-10-20 19:35:22:919
-1.1771;-3.7309;-2.4649;-8.6479;-1.3743;-4.4197;-0.992;-5.1388;-0.1378;-0.9626;-0.1248;0.5101;0.0;-14.76;16.39;43.09;288.36;8.05;117.07;0.0;59.819;39.46908;-0.341023;14.6;NaN;0.0;3.9;312.31;0 / 32;26662;2021-10-20 19:35:22:969
-1.1771;-3.7309;-2.4649;-7.5753;1.5371;-6.0382;-0.992;-5.1388;-0.1378;-1.1246;-1.1737;-0.2988;0.0;-14.76;16.39;43.09;288.36;8.05;117.07;0.0;59.819;39.46908;-0.341023;14.6;NaN;0.0;3.9;312.31;0 / 32;26712;2021-10-20 19:35:23:019
0.134;-2.79;-4.44;-4.6495;0.1772;-8.6335;-0.1831;-5.7757;0.449;-1.1246;-1.1737;-0.2988;0.0;-9.41;9.9;46.56;287.51;-9.02;128.56;0.0;59.819;39.46908;-0.341023;14.6;NaN;0.0;3.9;312.31;0 / 32;26763;2021-10-20 19:35:23:070
-2.714;-8.815;-9.825;-8.7197;1.9776;-4.0318;0.5757;-5.122;1.7838;-2.0772;-0.8471;-0.3486;0.0;-7.69;12.0;46.44;287.51;-9.02;128.56;0.0;59.819;39.46908;-0.341023;14.6;NaN;0.0;3.9;312.31;0 / 32;26813;2021-10-20 19:35:23:120
1.3781;-9.9829;-5.277;-8.7197;1.9776;-4.0318;-1.9277;1.5466;0.28;-0.8416;-1.4575;-0.6869;0.0;-7.69;12.0;46.44;287.51;-9.02;128.56;0.0;63.268;39.46908;-0.341023;14.6;NaN;0.0;3.9;312.31;0 / 32;26863;2021-10-20 19:35:23:170
-1.077;-11.7641;-3.4579;-8.8729;0.8811;-4.0845;-1.9277;1.5466;0.28;-0.8416;-1.4575;-0.6869;0.0;-8.81;18.9;44.29;294.4;-5.15;114.72;0.0;63.268;39.46908;-0.341023;14.6;NaN;0.0;3.9;312.31;0 / 32;26913;2021-10-20 19:35:23:220
0.2081;-9.9709;-2.0479;-9.4571;-0.3974;-2.5666;0.4398;3.3773;-1.6127;0.429;-1.4017;-0.6346;0.0;-8.81;18.9;44.29;294.4;-5.15;114.72;0.0;63.268;39.46908;-0.341023;14.6;NaN;0.0;3.9;312.31;0 / 32;26962;2021-10-20 19:35:23:269
0.2081;-9.9709;-2.0479;-9.4092;0.5794;-2.6959;-0.6381;2.1118;-2.0263;0.429;-1.4017;-0.6346;0.0;-10.74;26.1;40.31;302.06;2.32;105.18;0.0;63.268;39.46908;-0.341023;14.6;NaN;0.0;3.9;312.31;0 / 32;27012;2021-10-20 19:35:23:319
-2.142;-10.098;-3.2291;-9.4475;1.1971;-2.3463;1.8344;0.073;-0.7572;0.7785;-0.8566;-0.6819;0.0;-11.81;32.81;35.04;311.62;-3.39;105.99;0.0;63.268;39.46908;-0.341023;14.6;NaN;0.0;3.9;312.31;0 / 32;27062;2021-10-20 19:35:23:369
