sep=;
ACCELEROMETER X (m/s²);ACCELEROMETER Y (m/s²);ACCELEROMETER Z (m/s²);GRAVITY X (m/s²);GRAVITY Y (m/s²);GRAVITY Z (m/s²);LINEAR ACCELERATION X (m/s²);LINEAR ACCELERATION Y (m/s²);LINEAR ACCELERATION Z (m/s²);GYROSCOPE X (rad/s);GYROSCOPE Y (rad/s);GYROSCOPE Z (rad/s);LIGHT (lux);MAGNETIC FIELD X (μT);MAGNETIC FIELD Y (μT);MAGNETIC FIELD Z (μT);ORIENTATION Z (azimuth °);ORIENTATION X (pitch °);ORIENTATION Y (roll °);PROXIMITY (m);SOUND LEVEL (dB);LOCATION Latitude : ;LOCATION Longitude : ;LOCATION Altitude ( m);LOCATION Altitude-google ( m);LOCATION Speed ( Kmh);LOCATION Accuracy ( m);LOCATION ORIENTATION (°);Satellites in range;Time since start in ms ;YYYY-MO-DD HH-MI-SS_SSS
-0.236;13.107;1.639;9.764;0.575;0.723;-3.803;0.897;1.906;0.627;0.136;0.178;497.0;40.8;-31.5;0.4;185.0;-3.4;-85.8;0.0;62.2;39.46891;-0.34095;69.4;NaN;;16.753;;0 / 18;9;2021-10-27 17:39:42:053
-4.978;18.658;3.152;9.443;2.428;1.082;2.766;-9.445;-3.308;0.502;0.179;0.294;391.0;40.0;-33.1;0.8;187.2;-14.0;-81.0;0.0;62.2;39.46891;-0.34095;69.4;NaN;;16.753;;0 / 18;58;2021-10-27 17:39:42:102
0.471;10.675;-1.424;9.625;0.244;-1.872;-2.238;-1.015;1.842;0.343;0.242;0.678;391.0;38.2;-35.2;0.2;168.2;5.5;-98.1;0.0;62.2;39.46891;-0.34095;69.4;NaN;;16.753;;0 / 18;109;2021-10-27 17:39:42:153
-0.497;8.21;8.796;6.718;1.025;7.072;-0.965;2.346;-6.612;0.197;0.222;0.359;391.0;37.4;-35.6;-0.8;145.3;-14.2;-137.3;0.0;62.2;39.46891;-0.34095;69.4;NaN;;16.753;;0 / 18;158;2021-10-27 17:39:42:202
-0.217;8.904;-0.94;9.697;0.46;-1.413;-0.658;0.528;0.422;-0.179;0.442;0.354;391.0;36.4;-35.3;-3.5;178.1;-2.7;-98.3;0.0;62.2;39.46891;-0.34095;69.4;NaN;;16.753;;0 / 18;209;2021-10-27 17:39:42:253
-0.157;9.715;0.655;9.792;0.11;0.565;-1.221;0.091;-0.412;-0.195;0.289;0.287;391.0;36.1;-35.2;-5.5;192.7;-1.5;-86.7;0.0;64.34;39.46891;-0.34095;69.4;NaN;;16.753;;0 / 18;258;2021-10-27 17:39:42:302
-0.342;9.474;0.569;9.764;0.321;0.848;-0.869;0.377;0.047;-1.001;0.705;0.473;391.0;35.2;-34.6;-8.6;194.2;-2.3;-88.1;0.0;64.34;39.46891;-0.34095;69.4;NaN;;16.753;;0 / 18;309;2021-10-27 17:39:42:353
-1.086;10.05;0.399;9.759;0.934;0.321;-0.666;-0.013;-0.101;0.155;-0.729;0.374;97.0;35.2;-34.4;-10.3;198.4;-2.0;-84.9;0.0;64.34;39.46891;-0.34095;69.4;NaN;;16.753;;0 / 18;358;2021-10-27 17:39:42:402
-1.361;11.068;0.636;9.677;1.528;0.402;0.245;-1.462;-0.283;0.001;-0.746;0.178;97.0;34.2;-34.0;-13.0;200.4;-9.0;-87.6;0.0;64.34;39.46891;-0.34095;69.4;NaN;;16.753;;0 / 18;408;2021-10-27 17:39:42:452
-3.425;12.82;1.618;9.457;2.48;0.781;1.679;-1.039;1.051;0.123;-1.06;-0.264;97.0;33.7;-33.7;-14.8;203.3;-14.6;-85.3;0.0;64.34;39.46891;-0.34095;69.4;NaN;;16.753;;0 / 18;459;2021-10-27 17:39:42:503
-1.057;10.919;0.727;9.768;0.024;0.862;1.523;-1.034;-0.508;0.108;-1.161;-0.479;97.0;32.0;-33.7;-17.0;205.9;-17.1;-83.3;0.0;64.34;39.46891;-0.34095;69.4;NaN;;16.753;;0 / 18;508;2021-10-27 17:39:42:552
3.26;7.884;4.016;7.93;-3.021;4.922;-4.058;1.413;-4.619;-0.424;-0.591;0.05;97.0;31.9;-34.0;-17.3;218.4;8.3;-77.5;0.0;53.8;39.46891;-0.34095;69.4;NaN;;16.753;;0 / 18;559;2021-10-27 17:39:42:603
0.399;12.894;-3.14;9.61;-0.46;-1.896;-1.438;-3.424;4.046;-0.495;-0.428;0.423;97.0;31.9;-36.4;-16.0;196.0;-0.1;-99.7;0.0;53.8;39.46891;-0.34095;69.4;NaN;;16.753;;0 / 18;608;2021-10-27 17:39:42:652
-0.292;9.945;0.83;9.787;0.441;-0.441;-0.454;-0.458;-0.363;-0.116;-0.469;0.871;97.0;32.9;-38.5;-13.6;206.9;0.1;-80.5;0.0;53.8;39.46891;-0.34095;69.4;NaN;;16.753;;0 / 18;659;2021-10-27 17:39:42:703
0.722;8.511;0.402;9.792;-0.359;0.359;0.267;1.003;1.767;0.299;-0.671;0.527;196.0;34.0;-41.5;-8.8;190.1;-4.2;-95.9;0.0;53.8;39.46891;-0.34095;69.4;NaN;;16.753;;0 / 18;708;2021-10-27 17:39:42:752
1.175;7.767;-2.948;8.748;-1.609;-4.132;-1.323;2.016;3.322;0.762;-0.647;0.256;196.0;34.7;-43.0;-5.0;190.2;6.5;-90.4;0.0;53.8;39.46891;-0.34095;69.4;NaN;;16.753;;0 / 18;759;2021-10-27 17:39:42:803
0.749;6.163;-2.374;9.165;-1.369;-3.213;-1.146;2.669;3.107;1.018;-0.387;0.347;196.0;35.0;-44.2;1.1;162.2;8.0;-109.3;0.0;53.8;39.46891;-0.34095;69.4;NaN;;16.753;;0 / 18;808;2021-10-27 17:39:42:852
1.263;5.754;-3.2;8.38;-2.04;-4.669;-1.005;3.94;2.553;1.346;0.027;0.625;196.0;34.9;-44.7;5.3;151.5;10.8;-118.5;0.0;53.8;39.46891;-0.34095;69.4;NaN;;16.753;;0 / 18;859;2021-10-27 17:39:42:903
1.247;6.036;-4.61;7.681;-1.494;-5.918;-0.748;4.1;2.741;1.719;-0.042;0.661;196.0;33.6;-44.3;10.1;145.8;11.5;-122.9;0.0;53.01;39.46891;-0.34095;69.4;NaN;;16.753;;0 / 18;908;2021-10-27 17:39:42:952
1.022;6.836;-5.687;7.446;-1.097;-6.287;-0.174;2.692;3.631;1.674;0.066;0.44;196.0;33.1;-43.8;12.2;144.8;7.5;-128.2;0.0;53.01;39.46891;-0.34095;69.4;NaN;;16.753;;0 / 18;959;2021-10-27 17:39:43:003
1.62;7.757;-5.036;8.078;-1.46;-5.368;-0.608;2.053;2.032;1.674;0.066;0.44;196.0;32.5;-43.0;13.3;143.3;10.2;-122.9;0.0;53.01;39.46891;-0.34095;69.4;NaN;;16.753;;0 / 18;1008;2021-10-27 17:39:43:052
1.215;10.089;-6.503;8.217;-1.015;-5.258;-0.052;-1.13;2.571;1.295;0.027;0.135;33.0;31.8;-42.7;13.4;145.5;5.5;-122.2;0.0;53.01;39.46891;-0.34095;69.4;NaN;;16.753;;0 / 18;1059;2021-10-27 17:39:43:103
1.718;8.873;-5.601;8.092;-1.743;-5.258;-0.534;0.823;1.863;1.019;0.086;0.063;33.0;31.3;-42.3;13.0;143.5;8.1;-126.9;0.0;53.01;39.46891;-0.34095;69.4;NaN;;16.753;;0 / 18;1108;2021-10-27 17:39:43:152
8.068;22.157;-1.522;8.911;-3.922;1.173;-7.254;-12.675;-4.151;0.029;1.094;-0.142;33.0;30.5;-42.3;12.7;147.5;9.7;-112.4;0.0;53.01;39.46891;-0.34095;69.4;NaN;;16.753;;0 / 18;1159;2021-10-27 17:39:43:203
-2.06;1.536;2.135;1.92;1.417;9.51;0.415;7.996;-7.167;-0.434;1.598;-0.115;33.0;29.9;-42.4;11.0;211.8;-8.3;-11.4;0.0;56.1;39.46891;-0.34095;69.4;NaN;;16.753;;0 / 18;1208;2021-10-27 17:39:43:252
-2.19;10.608;0.753;9.725;1.049;0.728;4.174;-1.272;-4.122;-1.324;2.345;-0.872;33.0;29.3;-42.1;8.8;172.8;-19.5;-84.7;0.0;56.1;39.46891;-0.34095;69.4;NaN;;16.753;;0 / 18;1259;2021-10-27 17:39:43:303
-0.665;9.079;-2.384;9.706;0.421;-1.336;1.141;-2.092;-3.421;-2.022;3.046;-0.85;33.0;29.2;-41.6;4.4;174.8;2.5;-85.5;0.0;56.1;39.46891;-0.34095;69.4;NaN;;16.753;;0 / 18;1308;2021-10-27 17:39:43:352
-1.321;8.353;0.38;9.697;1.417;0.431;2.307;1.601;-1.922;-1.143;1.51;-1.688;15.0;29.1;-41.2;2.0;165.6;-6.0;-107.2;0.0;56.1;39.46891;-0.34095;69.4;NaN;;16.753;;0 / 18;1358;2021-10-27 17:39:43:402
-1.299;8.794;1.869;9.471;1.125;2.274;2.017;0.913;-2.109;-0.662;0.006;-0.796;15.0;28.9;-40.3;-1.3;190.2;-6.6;-76.5;0.0;56.1;39.46891;-0.34095;69.4;NaN;;16.753;;0 / 18;1409;2021-10-27 17:39:43:453
-0.682;8.7;0.014;9.768;0.886;0.187;0.913;1.21;-1.163;-0.605;-0.265;-0.762;15.0;28.3;-39.5;-2.9;189.0;-5.6;-82.6;0.0;56.1;39.46891;-0.34095;69.4;NaN;;16.753;;0 / 18;1458;2021-10-27 17:39:43:502
-0.014;8.758;0.186;9.764;-0.536;0.761;-0.569;1.064;-0.9;-0.563;-0.509;-0.493;15.0;28.2;-38.4;-5.8;186.6;-2.0;-90.7;0.0;56.1;39.46891;-0.34095;69.4;NaN;;16.753;;0 / 18;1509;2021-10-27 17:39:43:553
-0.22;9.445;0.071;9.802;0.144;0.158;-0.954;1.097;-0.72;-0.592;-0.562;-0.038;15.0;28.0;-37.6;-7.3;196.2;6.4;-81.5;0.0;57.76;39.46891;-0.34095;69.4;NaN;;16.753;;0 / 18;1558;2021-10-27 17:39:43:602
-1.651;10.108;1.505;9.591;1.504;1.374;1.07;-0.564;-0.761;-0.359;-0.903;-0.004;15.0;27.4;-36.4;-9.5;199.2;-8.8;-81.8;0.0;57.76;39.46891;-0.34095;69.4;NaN;;16.753;;0 / 18;1609;2021-10-27 17:39:43:653
0.368;11.075;0.567;9.797;-0.215;0.431;-0.763;-1.288;-0.377;-0.338;-0.944;-0.008;15.0;26.5;-35.9;-10.4;199.2;1.3;-84.7;0.0;57.76;39.46891;-0.34095;69.4;NaN;;16.753;;0 / 18;1658;2021-10-27 17:39:43:702
-2.532;11.326;0.148;9.543;2.255;0.134;2.344;-1.853;0.182;-0.338;-0.944;-0.008;193.0;25.6;-35.4;-11.9;196.8;-5.7;-89.4;0.0;57.76;39.46891;-0.34095;69.4;NaN;;16.753;;0 / 18;1709;2021-10-27 17:39:43:753
-2.714;13.181;3.243;9.323;2.04;2.274;2.357;-3.678;-2.834;-0.338;-0.944;-0.008;193.0;24.4;-35.8;-12.7;200.9;-14.0;-81.8;0.0;57.76;39.46891;-0.34095;69.4;NaN;;16.753;;0 / 18;1759;2021-10-27 17:39:43:803
3.293;7.097;4.021;7.796;-4.027;4.377;-2.546;1.359;-3.312;-0.314;-0.913;-0.388;193.0;23.7;-36.8;-12.5;219.8;24.2;-60.7;0.0;57.76;39.46891;-0.34095;69.4;NaN;;16.753;;0 / 18;1808;2021-10-27 17:39:43:852
2.039;12.463;0.61;9.692;-1.489;0.124;-2.677;-2.455;0.014;-0.678;-0.25;0.043;193.0;23.7;-38.4;-11.2;208.1;14.6;-74.8;0.0;51.47;39.46891;-0.34095;69.4;NaN;;16.753;;0 / 18;1859;2021-10-27 17:39:43:903
1.457;9.016;-3.42;9.251;-1.432;-2.926;-2.959;-1.888;5.918;0.157;-0.718;1.141;193.0;24.6;-41.1;-6.4;179.8;12.1;-108.6;0.0;51.47;39.46891;-0.34095;69.4;NaN;;16.753;;0 / 18;1909;2021-10-27 17:39:43:953
0.861;8.413;1.914;9.534;-0.895;2.112;-0.455;1.401;-0.807;0.312;-0.589;1.023;193.0;25.6;-43.0;-2.5;185.8;10.8;-92.9;0.0;51.47;39.46891;-0.34095;69.4;NaN;;16.753;;0 / 18;1959;2021-10-27 17:39:44:003
1.685;8.203;-2.101;9.232;-1.982;-2.653;-0.696;1.219;1.769;0.75;-0.558;0.477;193.0;27.1;-44.7;3.2;165.1;11.7;-106.0;0.0;51.47;39.46891;-0.34095;69.4;NaN;;16.753;;0 / 18;2008;2021-10-27 17:39:44:052
1.888;6.738;-2.386;8.911;-2.543;-3.213;-0.853;3.022;2.598;0.773;0.296;0.403;126.0;27.8;-45.1;6.8;157.4;14.6;-108.7;0.0;51.47;39.46891;-0.34095;69.4;NaN;;16.753;;0 / 18;2058;2021-10-27 17:39:44:102
1.608;6.532;-2.963;8.734;-2.021;-3.984;-0.686;3.09;3.082;0.936;0.48;0.395;126.0;28.6;-44.8;10.6;151.0;13.5;-112.6;0.0;51.47;39.46891;-0.34095;69.4;NaN;;16.753;;0 / 18;2108;2021-10-27 17:39:44:152
1.658;6.663;-3.59;8.442;-2.179;-4.492;-0.227;2.97;2.744;1.626;-0.143;0.509;126.0;29.5;-44.2;14.8;147.1;12.4;-115.1;0.0;51.95;39.46891;-0.34095;69.4;NaN;;16.753;;0 / 18;2158;2021-10-27 17:39:44:202
1.34;7.678;-5.294;8.059;-1.432;-5.406;0.112;1.69;3.29;1.516;0.043;0.346;126.0;30.0;-43.7;16.9;143.2;8.4;-123.9;0.0;51.95;39.46891;-0.34095;69.4;NaN;;16.753;;0 / 18;2208;2021-10-27 17:39:44:252
1.278;7.851;-4.459;8.461;-1.302;-4.788;0.34;1.577;2.08;1.468;-0.124;0.124;126.0;30.4;-43.6;17.0;143.6;9.3;-120.9;0.0;51.95;39.46891;-0.34095;69.4;NaN;;16.753;;0 / 18;2258;2021-10-27 17:39:44:302
0.327;9.33;-5.502;8.428;-0.369;-5.004;1.311;0.049;2.527;1.468;-0.124;0.124;126.0;31.3;-43.6;16.4;145.0;2.6;-120.0;0.0;51.95;39.46891;-0.34095;69.4;NaN;;16.753;;0 / 18;2309;2021-10-27 17:39:44:353
2.12;8.286;-6.805;7.369;-1.997;-6.153;-0.71;0.794;3.38;1.468;-0.124;0.124;126.0;32.3;-43.0;16.1;143.6;4.6;-121.9;0.0;51.95;39.46891;-0.34095;69.4;NaN;;16.753;;0 / 18;2358;2021-10-27 17:39:44:402
2.506;14.632;-6.479;9.146;-2.021;-2.907;-2.724;-10.133;2.083;0.884;-0.167;-0.017;27.0;33.6;-43.0;15.4;144.0;8.8;-115.6;0.0;51.95;39.46891;-0.34095;69.4;NaN;;16.753;;0 / 18;2409;2021-10-27 17:39:44:453
2.159;5.266;0.308;9.165;-3.462;0.421;-4.927;-6.813;-3.81;0.242;0.688;-0.053;27.0;34.1;-43.1;15.5;154.7;20.1;-87.4;0.0;51.95;39.46891;-0.34095;69.4;NaN;;16.753;;0 / 18;2459;2021-10-27 17:39:44:503
-1.776;5.665;2.635;8.72;2.557;3.682;3.074;4.547;-6.939;-0.481;1.396;-0.08;27.0;35.1;-43.5;14.3;189.7;-13.6;-53.8;0.0;52.63;39.46891;-0.34095;69.4;NaN;;16.753;;0 / 18;2508;2021-10-27 17:39:44:552
-1.543;11.051;-1.589;9.644;1.307;-1.211;3.342;-1.896;-1.157;-1.334;2.044;-0.855;27.0;35.5;-43.5;13.1;167.4;-14.2;-85.6;0.0;52.63;39.46891;-0.34095;69.4;NaN;;16.753;;0 / 18;2559;2021-10-27 17:39:44:603
0.27;8.71;0.155;9.768;0.661;0.599;2.846;0.533;-3.113;-1.748;2.559;-1.556;27.0;36.4;-43.0;9.8;170.3;-3.9;-86.5;0.0;52.63;39.46891;-0.34095;69.4;NaN;;16.753;;0 / 18;2609;2021-10-27 17:39:44:653
0.56;8.66;-0.411;9.792;-0.354;-0.417;0.232;1.02;-0.907;-0.847;0.965;-1.053;27.0;37.0;-42.4;7.9;168.8;9.9;-88.3;0.0;52.63;39.46891;-0.34095;69.4;NaN;;16.753;;0 / 18;2659;2021-10-27 17:39:44:703
-0.95;8.435;1.785;9.548;1.097;1.958;1.746;0.627;-2.905;-0.609;0.384;-0.741;73.0;37.0;-41.4;5.0;181.0;-7.7;-79.6;0.0;52.63;39.46891;-0.34095;69.4;NaN;;16.753;;0 / 18;2708;2021-10-27 17:39:44:752
-0.311;8.772;0.189;9.802;0.335;0.168;0.712;1.079;-0.844;-0.779;0.268;-0.395;73.0;36.4;-41.1;3.8;182.2;-2.9;-81.3;0.0;52.63;39.46891;-0.34095;69.4;NaN;;16.753;;0 / 18;2758;2021-10-27 17:39:44:802
-0.071;8.552;1.28;9.692;0.048;1.504;0.484;1.353;-1.047;-0.628;0.006;-0.339;73.0;35.6;-40.3;2.2;185.0;-0.3;-81.2;0.0;57.15;39.46891;-0.34095;69.4;NaN;;16.753;;0 / 18;2808;2021-10-27 17:39:44:852
-0.095;9.514;0.112;9.807;0.11;0.0;0.108;0.366;-0.08;-0.492;-0.208;-0.26;73.0;34.6;-39.7;1.1;183.7;3.5;-84.4;0.0;57.15;39.46891;-0.34095;69.4;NaN;;16.753;;0 / 18;2858;2021-10-27 17:39:44:902
-0.782;10.663;0.919;9.749;0.68;0.828;0.507;-0.261;-0.961;-0.357;-0.367;-0.184;73.0;32.6;-38.6;-1.1;184.2;-1.9;-84.9;0.0;57.15;39.46891;-0.34095;69.4;NaN;;16.753;;0 / 18;2909;2021-10-27 17:39:44:953
-0.205;10.735;0.976;9.778;0.278;0.699;0.152;-1.029;-0.782;-0.357;-0.367;-0.184;73.0;30.7;-37.9;-2.2;189.0;-3.0;-82.4;0.0;57.15;39.46891;-0.34095;69.4;NaN;;16.753;;0 / 18;2959;2021-10-27 17:39:45:003
-0.675;11.494;0.629;9.773;0.608;0.517;0.561;-1.523;-0.181;-0.182;-0.536;-0.171;73.0;27.7;-37.8;-3.7;187.9;-3.6;-87.0;0.0;57.15;39.46891;-0.34095;69.4;NaN;;16.753;;0 / 18;3008;2021-10-27 17:39:45:052
-1.002;12.963;2.123;9.629;0.824;1.671;0.894;-2.921;-1.62;-0.182;-0.536;-0.171;120.0;26.0;-37.6;-4.1;190.7;-2.7;-82.5;0.0;57.15;39.46891;-0.34095;69.4;NaN;;16.753;;0 / 18;3059;2021-10-27 17:39:45:103
3.791;6.551;4.954;7.058;-3.433;5.88;-2.289;1.959;-4.652;-0.502;-0.126;0.004;120.0;24.0;-38.4;-3.7;203.8;9.4;-60.8;0.0;57.15;39.46891;-0.34095;69.4;NaN;;16.753;;0 / 18;3108;2021-10-27 17:39:45:152
2.063;12.717;-0.631;9.673;-1.46;-0.666;-1.988;-3.348;2.028;-0.765;0.192;0.441;120.0;23.0;-38.8;-2.3;207.4;22.8;-59.5;0.0;51.99;39.46891;-0.34095;69.4;NaN;;16.753;;0 / 18;3159;2021-10-27 17:39:45:203
2.936;10.105;-3.904;8.815;-2.547;-3.462;-2.987;-1.552;4.823;-0.115;-0.544;0.788;120.0;22.6;-40.4;1.9;162.8;15.1;-111.4;0.0;51.99;39.46891;-0.34095;69.4;NaN;;16.753;;0 / 18;3208;2021-10-27 17:39:45:252
1.414;8.887;1.146;9.601;-1.628;1.183;-0.644;0.882;0.003;0.098;-0.802;0.944;120.0;23.1;-41.0;5.5;177.4;6.0;-82.0;0.0;51.99;39.46891;-0.34095;69.4;NaN;;16.753;;0 / 18;3259;2021-10-27 17:39:45:303
2.477;6.862;-2.19;8.859;-3.151;-2.792;-1.147;3.053;2.664;0.098;-0.802;0.944;120.0;23.5;-41.0;11.0;160.0;12.5;-100.1;0.0;51.99;39.46891;-0.34095;69.4;NaN;;16.753;;0 / 18;3309;2021-10-27 17:39:45:353
1.931;5.962;-1.895;8.681;-3.06;-3.385;-0.476;3.773;2.077;0.888;0.089;0.523;120.0;23.9;-40.3;14.5;149.4;19.1;-106.1;0.0;51.99;39.46891;-0.34095;69.4;NaN;;16.753;;0 / 18;3358;2021-10-27 17:39:45:402
1.596;5.574;-3.118;8.169;-2.658;-4.731;-0.441;4.025;3.155;1.184;-0.005;0.609;90.0;23.7;-40.0;18.4;142.0;15.7;-120.1;0.0;51.99;39.46891;-0.34095;69.4;NaN;;16.753;;0 / 18;3409;2021-10-27 17:39:45:453
1.725;6.675;-4.421;7.992;-2.193;-5.243;0.282;2.941;3.224;1.617;-0.451;0.572;90.0;23.8;-39.4;20.2;140.6;11.7;-123.4;0.0;54.5;39.46891;-0.34095;69.4;NaN;;16.753;;0 / 18;3458;2021-10-27 17:39:45:502
1.879;8.238;-5.943;7.848;-1.781;-5.602;0.258;1.539;3.882;1.724;-0.738;0.437;90.0;24.2;-39.1;21.1;139.6;12.8;-125.4;0.0;54.5;39.46891;-0.34095;69.4;NaN;;16.753;;0 / 18;3508;2021-10-27 17:39:45:552
1.902;8.349;-6.233;7.863;-1.781;-5.583;0.294;0.836;3.394;1.556;-0.797;0.212;90.0;24.9;-38.8;21.2;140.0;10.2;-127.6;0.0;54.5;39.46891;-0.34095;69.4;NaN;;16.753;;0 / 18;3558;2021-10-27 17:39:45:602
1.689;9.354;-5.493;8.322;-1.532;-4.956;0.447;-0.225;2.131;1.13;-0.452;0.006;90.0;26.4;-38.6;19.9;140.2;9.0;-120.8;0.0;54.5;39.46891;-0.34095;69.4;NaN;;16.753;;0 / 18;3609;2021-10-27 17:39:45:653
1.735;10.216;-6.106;8.437;-1.312;-4.827;-0.105;-0.433;2.532;1.019;-0.394;-0.013;90.0;27.2;-38.3;19.3;140.1;7.7;-119.8;0.0;54.5;39.46891;-0.34095;69.4;NaN;;16.753;;0 / 18;3659;2021-10-27 17:39:45:703
6.795;13.088;-1.177;8.744;-4.405;-0.579;-7.805;-9.531;-0.801;0.283;0.603;-0.127;0.0;27.7;-38.2;19.0;134.8;24.6;-104.3;0.0;54.5;39.46891;-0.34095;69.4;NaN;;16.753;;0 / 18;3709;2021-10-27 17:39:45:753
-1.536;6.312;3.379;5.962;0.977;7.728;0.553;6.495;-9.339;-0.233;1.184;-0.127;0.0;28.3;-38.0;17.6;146.8;30.4;-76.7;0.0;54.5;39.46891;-0.34095;69.4;NaN;;16.753;;0 / 18;3759;2021-10-27 17:39:45:803
-0.746;11.01;-1.598;9.606;0.962;-1.738;3.777;-0.814;-1.889;-1.121;1.884;-0.611;0.0;29.6;-38.5;14.6;154.1;-5.6;-100.3;0.0;54.2;39.46891;-0.34095;69.4;NaN;;16.753;;0 / 18;3809;2021-10-27 17:39:45:853
-1.543;8.193;0.708;9.601;1.844;0.785;3.332;0.298;-2.985;-1.943;2.681;-1.449;0.0;30.5;-39.0;11.6;168.2;-7.4;-84.2;0.0;54.2;39.46891;-0.34095;69.4;NaN;;16.753;;0 / 18;3858;2021-10-27 17:39:45:902
1.548;8.408;1.979;9.495;-1.571;1.882;-0.057;0.075;-3.009;-1.943;2.681;-1.449;0.0;31.6;-39.1;7.4;176.9;5.5;-77.2;0.0;54.2;39.46891;-0.34095;69.4;NaN;;16.753;;0 / 18;3909;2021-10-27 17:39:45:953
-0.524;9.174;0.792;9.735;0.91;0.752;2.117;1.229;-1.669;-0.826;0.516;-0.914;0.0;32.0;-38.7;4.1;182.1;1.0;-76.9;0.0;54.2;39.46891;-0.34095;69.4;NaN;;16.753;;0 / 18;3959;2021-10-27 17:39:46:003
0.246;9.213;1.012;9.663;-0.508;1.604;0.383;0.667;-1.767;-0.826;0.516;-0.914;0.0;32.8;-37.9;0.5;186.4;1.9;-82.8;0.0;54.2;39.46891;-0.34095;69.4;NaN;;16.753;;0 / 18;4009;2021-10-27 17:39:46:053
0.191;8.183;0.569;9.773;-0.177;0.828;0.301;1.235;-0.641;-0.778;-0.357;-0.412;47.0;32.8;-37.2;-2.0;185.4;2.5;-87.6;0.0;54.2;39.46891;-0.34095;69.4;NaN;;16.753;;0 / 18;4059;2021-10-27 17:39:46:103
0.067;8.696;0.196;9.807;0.062;0.091;0.516;1.097;-0.325;-0.566;-0.824;-0.349;47.0;33.2;-36.8;-5.2;192.3;0.8;-83.0;0.0;59.02;39.46891;-0.34095;69.4;NaN;;16.753;;0 / 18;4109;2021-10-27 17:39:46:153
0.124;9.541;0.536;9.783;-0.225;0.618;0.357;-0.032;0.167;-0.309;-1.248;-0.254;47.0;32.7;-36.1;-7.6;190.4;0.6;-88.7;0.0;59.02;39.46891;-0.34095;69.4;NaN;;16.753;;0 / 18;4159;2021-10-27 17:39:46:203
-1.062;11.951;1.034;9.744;0.886;0.632;1.024;-2.211;-1.212;-0.141;-1.481;-0.372;47.0;32.2;-36.1;-11.2;198.6;-5.2;-86.3;0.0;59.02;39.46891;-0.34095;69.4;NaN;;16.753;;0 / 18;4209;2021-10-27 17:39:46:253
-0.813;11.805;0.428;9.764;0.9;0.283;1.026;-2.126;0.109;-0.01;-1.66;-0.389;47.0;31.5;-35.6;-13.4;200.7;-3.2;-87.7;0.0;59.02;39.46891;-0.34095;69.4;NaN;;16.753;;0 / 18;4258;2021-10-27 17:39:46:302
-0.512;11.709;1.804;9.677;0.713;1.427;2.114;-2.901;-1.101;-0.076;-1.606;-0.544;47.0;30.3;-35.6;-15.5;205.6;-9.4;-82.7;0.0;59.02;39.46891;-0.34095;69.4;NaN;;16.753;;0 / 18;4309;2021-10-27 17:39:46:353
4.583;6.692;4.684;7.092;-4.683;4.894;-4.825;2.983;-4.286;-0.552;-0.959;-0.024;47.0;29.6;-36.1;-15.2;222.6;13.6;-62.3;0.0;59.02;39.46891;-0.34095;69.4;NaN;;16.753;;0 / 18;4359;2021-10-27 17:39:46:403
3.255;15.3;-0.61;9.586;-2.064;-0.148;-3.642;-4.451;-0.265;-0.721;-0.614;0.526;61.0;29.2;-37.4;-14.0;228.9;28.5;-55.4;0.0;59.02;39.46891;-0.34095;69.4;NaN;;16.753;;0 / 18;4408;2021-10-27 17:39:46:452
1.113;7.712;-0.349;9.653;-0.733;1.556;-1.161;1.412;3.263;-0.05;-0.897;1.06;61.0;28.8;-40.6;-8.3;180.9;11.7;-104.3;0.0;50.52;39.46891;-0.34095;69.4;NaN;;16.753;;0 / 18;4459;2021-10-27 17:39:46:503
1.175;8.013;1.522;9.615;-1.858;0.551;0.11;1.637;-1.623;0.006;-0.551;0.933;61.0;28.7;-41.8;-3.7;198.6;3.5;-70.2;0.0;50.52;39.46891;-0.34095;69.4;NaN;;16.753;;0 / 18;4509;2021-10-27 17:39:46:553
1.89;5.646;-2.968;8.399;-2.624;-4.324;-0.504;3.765;3.726;0.006;-0.551;0.933;61.0;28.2;-43.1;3.4;169.5;12.6;-101.7;0.0;50.52;39.46891;-0.34095;69.4;NaN;;16.753;;0 / 18;4559;2021-10-27 17:39:46:603
3.138;5.634;-2.822;8.068;-4.329;-3.51;-1.564;4.006;2.817;0.943;-0.028;0.446;61.0;27.7;-43.3;7.1;153.2;17.6;-117.2;0.0;50.52;39.46891;-0.34095;69.4;NaN;;16.753;;0 / 18;4609;2021-10-27 17:39:46:653
2.175;5.651;-3.264;8.092;-3.452;-4.329;-1.051;4.073;3.061;1.366;-0.014;0.761;61.0;27.1;-43.6;11.6;146.2;20.6;-118.1;0.0;50.52;39.46891;-0.34095;69.4;NaN;;16.753;;0 / 18;4659;2021-10-27 17:39:46:703
1.706;6.218;-4.686;7.685;-2.116;-5.717;0.538;3.348;3.305;1.892;-0.357;0.756;40.0;26.9;-43.5;13.7;145.2;11.8;-126.5;0.0;50.52;39.46891;-0.34095;69.4;NaN;;16.753;;0 / 18;4708;2021-10-27 17:39:46:752
2.123;7.877;-6.098;7.594;-2.035;-5.861;0.318;1.485;3.586;1.769;-0.487;0.399;40.0;26.9;-43.0;14.6;144.7;13.5;-126.9;0.0;55.73;39.46891;-0.34095;69.4;NaN;;16.753;;0 / 18;4759;2021-10-27 17:39:46:803
3.363;9.564;-5.991;8.016;-2.763;-4.932;-0.759;-0.343;3.113;1.532;-0.505;0.185;40.0;26.8;-42.5;14.2;144.3;12.0;-127.7;0.0;55.73;39.46891;-0.34095;69.4;NaN;;16.753;;0 / 18;4808;2021-10-27 17:39:46:852
3.2;9.433;-6.077;7.896;-2.811;-5.095;-0.382;-1.505;2.911;1.017;-0.276;-0.021;40.0;26.5;-42.0;13.1;147.0;11.2;-122.4;0.0;55.73;39.46891;-0.34095;69.4;NaN;;16.753;;0 / 18;4858;2021-10-27 17:39:46:902
5.017;11.692;-6.874;7.977;-3.448;-4.549;-1.673;-1.168;2.132;0.772;-0.106;-0.007;40.0;26.2;-41.8;12.5;144.3;19.5;-121.8;0.0;55.73;39.46891;-0.34095;69.4;NaN;;16.753;;0 / 18;4909;2021-10-27 17:39:46:953
4.854;6.616;6.726;6.958;-0.986;6.838;-1.004;-2.017;-10.548;-0.106;1.06;-0.214;40.0;26.1;-41.5;11.5;151.1;19.2;-102.1;0.0;55.73;39.46891;-0.34095;69.4;NaN;;16.753;;0 / 18;4959;2021-10-27 17:39:47:003
-2.951;6.714;-0.246;8.811;4.223;-0.824;5.306;3.67;-2.632;-0.571;1.403;-0.45;40.0;25.9;-41.2;9.1;166.6;-25.5;-95.3;0.0;55.73;39.46891;-0.34095;69.4;NaN;;16.753;;0 / 18;5009;2021-10-27 17:39:47:053
0.698;10.859;2.056;9.639;0.048;1.82;4.329;-0.502;-5.054;-1.477;2.404;-1.155;0.0;25.6;-40.9;7.0;177.1;-0.3;-79.3;0.0;58.74;39.46891;-0.34095;69.4;NaN;;16.753;;0 / 18;5059;2021-10-27 17:39:47:103
1.663;7.341;-2.242;9.294;-2.04;-2.375;0.87;1.033;0.853;-1.726;2.698;-1.355;0.0;25.7;-40.3;4.6;166.3;6.1;-99.0;0.0;58.74;39.46891;-0.34095;69.4;NaN;;16.753;;0 / 18;5108;2021-10-27 17:39:47:152
-0.684;9.332;3.944;9.117;0.666;3.553;2.222;0.698;-5.607;-0.819;0.839;-1.282;0.0;26.0;-38.9;1.6;181.3;6.6;-81.7;0.0;58.74;39.46891;-0.34095;69.4;NaN;;16.753;;0 / 18;5158;2021-10-27 17:39:47:202
-0.335;8.71;-0.385;9.802;-0.259;-0.105;1.816;0.698;-0.3;-1.108;0.966;-0.714;0.0;26.1;-37.6;-1.1;179.7;-2.4;-92.7;0.0;58.74;39.46891;-0.34095;69.4;NaN;;16.753;;0 / 18;5209;2021-10-27 17:39:47:253
0.435;8.717;0.296;9.792;-0.517;0.259;0.699;1.003;-0.75;-0.718;0.081;-0.52;0.0;26.1;-36.7;-2.9;189.3;3.4;-83.8;0.0;58.74;39.46891;-0.34095;69.4;NaN;;16.753;;0 / 18;5259;2021-10-27 17:39:47:303
0.146;9.103;0.155;9.802;-0.235;0.115;0.834;0.663;-0.21;-0.719;-0.174;-0.517;0.0;25.4;-35.2;-5.5;188.8;0.6;-88.8;0.0;58.74;39.46891;-0.34095;69.4;NaN;;16.753;;0 / 18;5308;2021-10-27 17:39:47:352
0.382;9.806;0.528;9.787;-0.421;0.464;0.595;-0.067;-0.617;-0.168;-1.187;-0.328;0.0;25.1;-34.0;-6.8;191.3;1.1;-88.0;0.0;58.74;39.46891;-0.34095;69.4;NaN;;16.753;;0 / 18;5359;2021-10-27 17:39:47:403
-1.101;10.917;1.768;9.625;1.058;1.561;1.195;-0.632;-0.802;-0.168;-1.222;-0.278;57.0;23.6;-33.3;-8.6;198.7;-3.6;-83.6;0.0;53.75;39.46891;-0.34095;69.4;NaN;;16.753;;0 / 18;5408;2021-10-27 17:39:47:452
0.722;12.387;0.706;9.764;-0.445;0.814;0.017;-2.066;-1.169;-0.314;-0.997;-0.417;57.0;22.3;-32.9;-9.2;199.2;-3.2;-82.3;0.0;53.75;39.46891;-0.34095;69.4;NaN;;16.753;;0 / 18;5459;2021-10-27 17:39:47:503
-1.01;13.232;2.245;9.62;0.651;1.786;0.692;-1.982;0.492;-0.172;-1.169;-0.348;57.0;20.8;-33.0;-10.6;194.2;-1.2;-94.1;0.0;53.75;39.46891;-0.34095;69.4;NaN;;16.753;;0 / 18;5509;2021-10-27 17:39:47:553
2.475;7.944;4.186;8.207;-2.954;4.487;-1.361;0.547;-3.939;-0.458;-0.69;-0.241;57.0;20.2;-33.2;-10.6;204.6;-0.5;-77.2;0.0;53.75;39.46891;-0.34095;69.4;NaN;;16.753;;0 / 18;5558;2021-10-27 17:39:47:602
3.257;10.28;6.288;8.475;-2.504;4.247;-3.045;4.022;-9.547;-1.148;0.522;0.464;57.0;20.0;-34.0;-9.1;213.6;17.5;-61.3;0.0;53.75;39.46891;-0.34095;69.4;NaN;;16.753;;0 / 18;5609;2021-10-27 17:39:47:653
4.303;11.587;-7.621;7.949;-2.849;-4.99;-5.79;-4.467;10.635;-0.357;-0.335;0.927;57.0;20.2;-36.1;-4.9;167.2;22.7;-120.4;0.0;53.75;39.46891;-0.34095;69.4;NaN;;16.753;;0 / 18;5659;2021-10-27 17:39:47:703
1.723;7.271;1.249;9.467;-2.121;1.451;-0.544;2.254;-0.193;0.041;-0.607;1.214;57.0;20.3;-38.1;1.1;181.6;19.4;-90.6;0.0;52.87;39.46891;-0.34095;69.4;NaN;;16.753;;0 / 18;5709;2021-10-27 17:39:47:753
2.068;6.338;-0.035;9.309;-3.084;-0.177;-0.101;3.543;0.79;1.039;-0.75;0.789;57.0;20.6;-39.1;4.1;175.1;11.8;-89.8;0.0;52.87;39.46891;-0.34095;69.4;NaN;;16.753;;0 / 18;5759;2021-10-27 17:39:47:803
2.515;6.233;-5.423;6.934;-2.667;-6.407;-0.625;2.816;3.904;1.333;-0.808;0.753;57.0;20.8;-39.1;8.6;149.2;15.8;-132.7;0.0;52.87;39.46891;-0.34095;69.4;NaN;;16.753;;0 / 18;5808;2021-10-27 17:39:47:852
0.44;5.538;-4.287;7.848;-0.455;-5.866;1.715;4.126;3.913;1.333;-0.808;0.753;57.0;21.2;-38.9;10.4;150.0;6.7;-134.5;0.0;52.87;39.46891;-0.34095;69.4;NaN;;16.753;;0 / 18;5859;2021-10-27 17:39:47:903
1.984;6.75;-5.021;7.705;-2.212;-5.65;0.875;2.928;3.779;1.333;-0.808;0.753;57.0;22.1;-38.2;12.2;149.1;4.7;-126.7;0.0;52.87;39.46891;-0.34095;69.4;NaN;;16.753;;0 / 18;5908;2021-10-27 17:39:47:952
1.642;6.915;-4.229;8.126;-1.872;-5.157;0.701;2.368;1.53;1.333;-0.808;0.753;57.0;22.4;-37.6;12.4;148.2;11.0;-120.9;0.0;52.87;39.46891;-0.34095;69.4;NaN;;16.753;;0 / 18;5958;2021-10-27 17:39:48:002
2.3;9.667;-5.05;8.624;-1.987;-4.223;0.099;-0.044;2.209;1.313;-0.585;-0.074;57.0;23.6;-37.2;11.9;147.1;11.7;-116.1;0.0;52.87;39.46891;-0.34095;69.4;NaN;;16.753;;0 / 18;6009;2021-10-27 17:39:48:053
3.506;9.868;-5.955;8.001;-2.763;-4.956;-1.379;-1.24;2.218;0.764;0.231;-0.078;0.0;23.9;-36.5;11.8;144.5;16.3;-116.2;0.0;60.61;39.46891;-0.34095;69.4;NaN;;16.753;;0 / 18;6058;2021-10-27 17:39:48:102
3.106;8.016;-5.725;7.499;-3.299;-5.392;-1.004;1.198;1.395;0.635;0.278;-0.06;0.0;25.0;-36.1;11.9;141.1;18.0;-125.6;0.0;60.61;39.46891;-0.34095;69.4;NaN;;16.753;;0 / 18;6108;2021-10-27 17:39:48:152
6.089;16.86;-4.342;9.342;-2.356;-1.82;-4.026;-8.457;0.582;0.315;0.648;-0.003;0.0;25.6;-35.8;12.1;144.0;14.3;-118.2;0.0;60.61;39.46891;-0.34095;69.4;NaN;;16.753;;0 / 18;6158;2021-10-27 17:39:48:202
1.046;4.385;6.379;6.225;-1.705;7.384;0.46;-0.065;-8.555;-0.155;1.111;-0.248;0.0;26.5;-35.2;11.6;149.5;13.9;-101.0;0.0;60.61;39.46891;-0.34095;69.4;NaN;;16.753;;0 / 18;6208;2021-10-27 17:39:48:252
-1.079;8.353;-2.092;9.38;1.202;-2.595;3.345;1.966;-2.431;-1.003;2.002;-0.657;0.0;27.5;-34.6;10.1;166.7;-5.1;-87.4;0.0;60.61;39.46891;-0.34095;69.4;NaN;;16.753;;0 / 18;6259;2021-10-27 17:39:48:303
0.378;9.557;2.482;9.433;-0.345;2.658;2.563;-1.885;-2.127;-1.28;2.145;-0.986;0.0;28.5;-33.7;7.1;157.3;-4.8;-105.1;0.0;60.61;39.46891;-0.34095;69.4;NaN;;16.753;;0 / 18;6310;2021-10-27 17:39:48:354
0.926;8.088;1.259;9.62;-1.092;1.566;1.251;1.142;-2.335;-1.58;2.103;-1.006;0.0;28.7;-33.1;5.6;182.8;5.2;-75.4;0.0;60.0;39.46891;-0.34095;69.4;NaN;;16.753;;0 / 18;6359;2021-10-27 17:39:48:403
-0.126;9.339;1.335;9.706;0.11;1.398;1.453;1.348;-2.567;-0.794;0.79;-0.988;0.0;29.2;-31.6;3.1;182.1;-0.6;-81.8;0.0;60.0;39.46891;-0.34095;69.4;NaN;;16.753;;0 / 18;6409;2021-10-27 17:39:48:453
0.191;9.184;-0.299;9.764;-0.532;-0.737;1.369;0.676;-0.122;-0.825;0.663;-0.847;0.0;28.9;-31.3;2.2;174.0;2.5;-92.2;0.0;60.0;39.46891;-0.34095;69.4;NaN;;16.753;;0 / 18;6458;2021-10-27 17:39:48:502
0.136;9.469;0.215;9.802;-0.086;0.225;1.155;0.232;-0.176;-0.618;0.036;-0.466;0.0;28.7;-30.9;1.1;171.9;3.8;-94.2;0.0;60.0;39.46891;-0.34095;69.4;NaN;;16.753;;0 / 18;6509;2021-10-27 17:39:48:553
0.308;8.351;-0.007;9.802;-0.326;-0.034;0.656;1.447;0.108;-0.36;-0.308;-0.44;0.0;28.1;-30.7;0.8;179.7;1.5;-88.3;0.0;60.0;39.46891;-0.34095;69.4;NaN;;16.753;;0 / 18;6558;2021-10-27 17:39:48:602
0.806;9.924;0.787;9.749;-0.828;0.68;0.521;0.384;-0.777;-0.06;-0.627;-0.331;0.0;27.3;-30.1;0.4;183.9;4.8;-86.0;0.0;60.0;39.46891;-0.34095;69.4;NaN;;16.753;;0 / 18;6608;2021-10-27 17:39:48:652
0.009;10.914;1.749;9.735;-0.254;1.164;-0.226;-0.234;-0.166;-0.092;-0.537;-0.263;0.0;25.9;-29.9;-0.1;186.0;1.5;-83.2;0.0;60.0;39.46891;-0.34095;69.4;NaN;;16.753;;0 / 18;6658;2021-10-27 17:39:48:702
-0.665;11.156;0.301;9.783;0.622;0.263;1.035;-1.48;-0.113;-0.229;-0.285;-0.185;26.0;23.6;-29.8;-0.8;183.9;-0.6;-87.4;0.0;54.39;39.46891;-0.34095;69.4;NaN;;16.753;;0 / 18;6708;2021-10-27 17:39:48:752
-1.632;12.035;1.452;9.629;1.36;1.255;1.946;-1.964;-0.882;-0.165;-0.247;-0.341;26.0;21.4;-30.1;-1.1;181.3;-4.3;-90.7;0.0;54.39;39.46891;-0.34095;69.4;NaN;;16.753;;0 / 18;6759;2021-10-27 17:39:48:803
2.417;9.813;3.384;9.649;-0.713;1.604;2.078;-3.852;-1.118;-0.281;0.028;-0.608;26.0;17.9;-30.5;-1.0;187.8;4.2;-80.6;0.0;54.39;39.46891;-0.34095;69.4;NaN;;16.753;;0 / 18;6809;2021-10-27 17:39:48:853
5.704;6.218;3.93;8.586;-4.563;1.274;-5.582;3.936;-3.696;-0.785;0.67;0.281;26.0;15.7;-31.0;-0.4;210.3;38.1;-52.9;0.0;54.39;39.46891;-0.34095;69.4;NaN;;16.753;;0 / 18;6859;2021-10-27 17:39:48:903
3.061;12.925;-0.727;9.476;-2.504;-0.34;-3.541;-5.095;2.37;-0.507;0.285;0.734;26.0;12.6;-32.1;0.8;177.4;14.8;-95.4;0.0;54.39;39.46891;-0.34095;69.4;NaN;;16.753;;0 / 18;6909;2021-10-27 17:39:48:953
1.443;8.303;0.368;9.653;-1.724;0.014;-0.78;-0.115;3.186;-0.089;-0.288;1.208;26.0;11.9;-33.4;2.2;174.9;11.6;-98.1;0.0;54.39;39.46891;-0.34095;69.4;NaN;;16.753;;0 / 18;6958;2021-10-27 17:39:49:002
2.266;7.14;0.069;9.357;-2.897;0.532;-0.367;1.952;-1.42;0.374;-0.523;0.514;26.0;12.1;-34.9;4.7;171.8;17.2;-86.7;0.0;51.05;39.46891;-0.34095;69.4;NaN;;16.753;;0 / 18;7008;2021-10-27 17:39:49:052
2.709;6.189;-4.361;7.575;-3.338;-5.258;-0.994;3.396;5.248;0.711;-0.738;0.414;11.0;12.8;-36.1;6.5;157.3;19.2;-126.3;0.0;51.05;39.46891;-0.34095;69.4;NaN;;16.753;;0 / 18;7059;2021-10-27 17:39:49:103
2.834;5.005;-3.293;7.398;-4.204;-4.875;-0.928;4.582;3.589;0.893;-0.94;0.5;11.0;14.1;-37.0;9.1;154.4;25.6;-124.6;0.0;51.05;39.46891;-0.34095;69.4;NaN;;16.753;;0 / 18;7108;2021-10-27 17:39:49:152
2.084;5.632;-3.425;7.954;-3.055;-4.855;0.476;4.155;2.518;1.374;-1.477;1.034;11.0;14.7;-37.6;10.6;153.0;23.7;-122.0;0.0;51.05;39.46891;-0.34095;69.4;NaN;;16.753;;0 / 18;7158;2021-10-27 17:39:49:202
2.609;7.75;-4.827;8.054;-2.739;-4.875;0.258;1.978;2.635;1.557;-1.663;1.014;11.0;16.3;-38.0;11.8;151.7;16.2;-121.2;0.0;51.05;39.46891;-0.34095;69.4;NaN;;16.753;;0 / 18;7209;2021-10-27 17:39:49:253
2.635;8.327;-5.301;7.982;-2.49;-5.124;0.502;0.631;2.59;1.193;-1.096;0.404;11.0;17.2;-38.3;11.2;152.3;14.4;-120.9;0.0;51.05;39.46891;-0.34095;69.4;NaN;;16.753;;0 / 18;7259;2021-10-27 17:39:49:303
2.242;9.318;-6.182;8.011;-1.963;-5.301;0.706;-0.22;3.055;1.027;-0.981;0.182;11.0;19.0;-38.8;9.7;153.2;11.9;-123.6;0.0;51.05;39.46891;-0.34095;69.4;NaN;;16.753;;0 / 18;7309;2021-10-27 17:39:49:353
4.21;10.73;-4.751;8.346;-3.768;-3.505;-1.471;-2.083;1.17;0.696;-0.561;0.044;11.0;19.6;-39.4;8.3;153.6;14.0;-120.3;0.0;55.73;39.46891;-0.34095;69.4;NaN;;16.753;;0 / 18;7358;2021-10-27 17:39:49:402
6.323;13.54;-5.471;8.361;-3.831;-3.405;-3.143;-4.554;1.379;0.415;-0.039;0.041;0.0;21.1;-40.3;7.3;154.5;23.0;-112.2;0.0;55.73;39.46891;-0.34095;69.4;NaN;;16.753;;0 / 18;7408;2021-10-27 17:39:49:452
1.127;5.897;2.384;8.246;-1.484;5.1;1.727;2.442;-4.86;-0.034;0.309;0.01;0.0;21.9;-40.7;6.8;157.8;14.2;-111.0;0.0;55.73;39.46891;-0.34095;69.4;NaN;;16.753;;0 / 18;7459;2021-10-27 17:39:49:503
-2.4;7.922;1.962;9.155;2.859;2.035;4.679;1.54;-6.641;-0.942;1.364;-0.829;0.0;23.3;-40.9;5.0;186.1;-12.2;-65.9;0.0;55.73;39.46891;-0.34095;69.4;NaN;;16.753;;0 / 18;7508;2021-10-27 17:39:49:552
1.486;11.36;3.279;9.232;-1.24;3.065;2.116;-2.393;-2.947;-1.267;1.888;-1.491;0.0;24.1;-40.8;3.5;175.6;-16.1;-88.9;0.0;55.73;39.46891;-0.34095;69.4;NaN;;16.753;;0 / 18;7558;2021-10-27 17:39:49:602
1.857;8.171;-0.727;9.467;-2.035;-1.556;0.659;1.103;-3.181;-1.856;3.053;-1.351;0.0;25.6;-40.2;0.2;172.9;12.0;-99.3;0.0;55.73;39.46891;-0.34095;69.4;NaN;;16.753;;0 / 18;7608;2021-10-27 17:39:49:652
-1.041;9.572;1.172;9.668;1.116;1.226;2.025;0.875;-1.231;-0.704;0.27;-0.919;0.0;26.6;-39.6;-1.6;184.3;-1.3;-87.8;0.0;57.72;39.46891;-0.34095;69.4;NaN;;16.753;;0 / 18;7658;2021-10-27 17:39:49:702
-0.572;8.971;-0.811;9.744;0.493;-0.991;2.627;-0.104;-1.03;-0.616;-0.14;-0.69;0.0;28.2;-39.0;-3.7;188.6;-6.2;-82.9;0.0;57.72;39.46891;-0.34095;69.4;NaN;;16.753;;0 / 18;7709;2021-10-27 17:39:49:753
0.191;8.717;-0.382;9.778;-0.378;-0.618;1.097;1.224;-0.52;-0.616;-0.14;-0.69;0.0;29.0;-38.5;-4.4;181.6;-1.0;-95.7;0.0;57.72;39.46891;-0.34095;69.4;NaN;;16.753;;0 / 18;7759;2021-10-27 17:39:49:803
0.581;8.538;-0.821;9.754;-0.584;-0.871;0.396;1.168;0.412;-0.199;-1.004;-0.553;0.0;29.3;-37.9;-5.5;185.4;3.4;-95.1;0.0;57.72;39.46891;-0.34095;69.4;NaN;;16.753;;0 / 18;7808;2021-10-27 17:39:49:852
0.325;9.423;0.787;9.783;-0.335;0.642;0.382;0.634;-1.015;-0.199;-1.004;-0.553;0.0;29.5;-37.5;-6.7;194.3;4.1;-86.2;0.0;57.72;39.46891;-0.34095;69.4;NaN;;16.753;;0 / 18;7859;2021-10-27 17:39:49:903
-0.169;10.237;1.977;9.601;0.235;1.973;0.805;0.058;-2.545;-0.283;-0.626;-0.211;0.0;29.0;-36.8;-8.5;201.1;0.0;-77.0;0.0;57.72;39.46891;-0.34095;69.4;NaN;;16.753;;0 / 18;7908;2021-10-27 17:39:49:952
0.959;10.8;0.66;9.74;-0.862;0.728;-0.024;-0.724;-0.69;-0.478;-0.346;-0.134;0.0;28.8;-36.1;-10.0;199.3;0.1;-82.8;0.0;57.72;39.46891;-0.34095;69.4;NaN;;16.753;;0 / 18;7958;2021-10-27 17:39:50:002
-0.359;10.649;0.339;9.797;0.412;0.239;0.539;-0.856;-0.511;-0.545;-0.307;-0.125;0.0;28.2;-35.5;-11.5;197.5;-2.4;-88.6;0.0;52.78;39.46891;-0.34095;69.4;NaN;;16.753;;0 / 18;8008;2021-10-27 17:39:50:052
-2.364;13.255;2.285;9.582;1.422;1.547;1.669;-2.151;-0.957;-0.412;-0.499;-0.222;10.0;27.6;-35.4;-11.9;203.0;-8.3;-80.8;0.0;52.78;39.46891;-0.34095;69.4;NaN;;16.753;;0 / 18;8059;2021-10-27 17:39:50:103
0.002;11.676;1.452;9.744;0.201;1.097;1.841;-1.865;-0.708;-0.279;-0.682;-0.479;10.0;26.8;-36.0;-12.5;201.0;-9.2;-83.0;0.0;52.78;39.46891;-0.34095;69.4;NaN;;16.753;;0 / 18;8108;2021-10-27 17:39:50:152
3.695;6.491;2.953;8.011;-4.357;3.606;-1.995;0.869;-2.408;-0.256;-0.646;-0.416;10.0;26.3;-37.0;-11.5;208.5;6.4;-75.7;0.0;52.78;39.46891;-0.34095;69.4;NaN;;16.753;;0 / 18;8158;2021-10-27 17:39:50:202
3.681;12.861;-1.469;9.337;-2.95;-0.551;-4.169;1.766;-1.121;-0.704;0.24;0.582;10.0;25.8;-39.0;-8.0;192.4;17.5;-93.4;0.0;52.78;39.46891;-0.34095;69.4;NaN;;16.753;;0 / 18;8208;2021-10-27 17:39:50:252
2.285;11.537;-1.493;9.577;-1.705;-1.235;-1.75;-2.212;2.579;-0.046;-0.259;1.238;10.0;25.5;-40.5;-4.4;184.9;15.1;-92.8;0.0;52.78;39.46891;-0.34095;69.4;NaN;;16.753;;0 / 18;8258;2021-10-27 17:39:50:302
0.497;8.49;1.452;9.62;-0.699;1.781;0.288;1.096;-0.379;0.133;0.003;1.109;10.0;25.5;-42.2;0.8;185.7;7.5;-83.7;0.0;47.57;39.46891;-0.34095;69.4;NaN;;16.753;;0 / 18;8309;2021-10-27 17:39:50:353
2.74;7.75;-3.652;8.298;-3.093;-4.209;-1.318;2.062;4.579;0.506;0.099;0.445;9.0;25.7;-42.9;4.3;179.3;5.8;-84.6;0.0;47.57;39.46891;-0.34095;69.4;NaN;;16.753;;0 / 18;8359;2021-10-27 17:39:50:403
2.453;5.895;-4.088;7.695;-3.189;-5.171;-1.207;3.507;4.65;0.506;0.099;0.445;9.0;26.3;-43.0;8.9;148.1;19.0;-123.9;0.0;47.57;39.46891;-0.34095;69.4;NaN;;16.753;;0 / 18;8408;2021-10-27 17:39:50:452
1.991;5.986;-2.147;8.648;-3.448;-3.084;-0.288;4.026;2.428;1.58;-0.26;0.577;9.0;26.9;-42.3;11.8;147.4;20.6;-109.6;0.0;47.57;39.46891;-0.34095;69.4;NaN;;16.753;;0 / 18;8459;2021-10-27 17:39:50:503
2.051;6.587;-3.298;8.447;-2.6;-4.257;0.121;3.041;1.762;1.739;-0.357;0.696;9.0;27.3;-41.2;14.9;145.9;16.5;-113.4;0.0;47.57;39.46891;-0.34095;69.4;NaN;;16.753;;0 / 18;8508;2021-10-27 17:39:50:552
2.005;7.645;-4.77;8.112;-2.116;-5.085;0.46;1.869;2.345;1.402;0.088;0.351;9.0;27.9;-40.9;15.8;143.3;14.0;-118.1;0.0;47.57;39.46891;-0.34095;69.4;NaN;;16.753;;0 / 18;8559;2021-10-27 17:39:50:603
1.488;8.133;-4.617;8.432;-1.527;-4.764;1.129;1.718;1.854;1.181;0.087;-0.054;9.0;27.7;-41.0;16.3;143.9;9.0;-119.5;0.0;47.57;39.46891;-0.34095;69.4;NaN;;16.753;;0 / 18;8608;2021-10-27 17:39:50:652
2.206;9.622;-5.625;8.475;-2.121;-4.458;0.175;-0.877;2.154;1.081;-0.054;-0.225;9.0;28.0;-41.0;16.1;143.1;12.5;-117.7;0.0;57.04;39.46891;-0.34095;69.4;NaN;;16.753;;0 / 18;8659;2021-10-27 17:39:50:703
1.931;8.72;-5.89;8.107;-2.016;-5.138;0.028;0.361;1.829;0.791;-0.081;-0.226;0.0;28.0;-40.9;15.7;143.2;7.9;-124.0;0.0;57.04;39.46891;-0.34095;69.4;NaN;;16.753;;0 / 18;8709;2021-10-27 17:39:50:753
2.92;11.676;-6.194;8.538;-2.174;-4.314;0.053;-0.173;1.794;0.623;-0.008;-0.164;0.0;28.3;-40.8;15.4;143.4;10.8;-122.8;0.0;57.04;39.46891;-0.34095;69.4;NaN;;16.753;;0 / 18;8758;2021-10-27 17:39:50:802
5.526;11.223;0.947;7.618;-4.626;4.089;-0.645;3.43;-5.96;-0.002;0.887;0.019;0.0;27.7;-40.9;14.5;155.8;25.9;-81.5;0.0;57.04;39.46891;-0.34095;69.4;NaN;;16.753;;0 / 18;8809;2021-10-27 17:39:50:853
-2.068;5.601;3.482;7.867;2.854;5.114;3.552;5.053;-6.481;-0.206;1.091;0.032;0.0;27.7;-41.2;13.4;189.5;-12.0;-50.5;0.0;57.04;39.46891;-0.34095;69.4;NaN;;16.753;;0 / 18;8859;2021-10-27 17:39:50:903
-0.014;12.805;1.019;9.778;0.158;0.733;3.708;-2.138;-4.753;-1.227;2.066;-0.583;0.0;27.6;-41.0;10.4;170.1;-6.0;-81.4;0.0;57.04;39.46891;-0.34095;69.4;NaN;;16.753;;0 / 18;8909;2021-10-27 17:39:50:953
1.376;9.32;-1.364;9.553;-1.518;-1.609;2.782;-2.366;-3.371;-1.884;2.799;-0.972;0.0;28.0;-41.0;7.6;171.6;0.1;-84.1;0.0;57.63;39.46891;-0.34095;69.4;NaN;;16.753;;0 / 18;8959;2021-10-27 17:39:51:003
-0.074;9.476;0.356;9.802;0.158;0.225;1.972;0.175;-1.043;-1.492;2.195;-1.299;0.0;28.3;-40.7;4.3;179.4;1.8;-82.8;0.0;57.63;39.46891;-0.34095;69.4;NaN;;16.753;;0 / 18;9009;2021-10-27 17:39:51:053
-0.722;8.25;0.605;9.716;0.886;1.03;2.249;1.471;-1.27;-1.492;2.195;-1.299;0.0;28.3;-40.4;2.6;178.2;-4.0;-86.5;0.0;57.63;39.46891;-0.34095;69.4;NaN;;16.753;;0 / 18;9059;2021-10-27 17:39:51:103
0.284;9.014;0.672;9.783;-0.627;0.278;0.591;0.606;-0.549;-1.492;2.195;-1.299;0.0;28.3;-39.7;0.7;184.2;1.0;-82.0;0.0;57.63;39.46891;-0.34095;69.4;NaN;;16.753;;0 / 18;9109;2021-10-27 17:39:51:153
0.392;8.265;0.792;9.735;-0.546;1.077;0.776;1.505;-1.024;-1.492;2.195;-1.299;0.0;28.1;-39.1;-0.5;183.1;0.4;-85.7;0.0;57.63;39.46891;-0.34095;69.4;NaN;;16.753;;0 / 18;9159;2021-10-27 17:39:51:203
0.308;9.1;0.265;9.802;-0.235;0.306;0.317;0.946;-0.082;-0.406;-0.512;-0.39;0.0;27.9;-38.5;-2.6;185.8;1.4;-88.2;0.0;57.63;39.46891;-0.34095;69.4;NaN;;16.753;;0 / 18;9208;2021-10-27 17:39:51:252
-0.397;9.809;1.28;9.725;0.35;1.235;0.995;-0.091;-1.067;-0.339;-0.629;-0.313;0.0;28.0;-38.5;-3.7;188.7;-2.6;-85.6;0.0;57.63;39.46891;-0.34095;69.4;NaN;;16.753;;0 / 18;9259;2021-10-27 17:39:51:303
0.864;9.986;1.16;9.682;-1.015;1.197;-0.831;-0.742;-0.97;-0.294;-0.713;-0.19;0.0;26.9;-38.0;-5.6;193.4;7.5;-83.2;0.0;54.99;39.46891;-0.34095;69.4;NaN;;16.753;;0 / 18;9308;2021-10-27 17:39:51:352
0.21;10.395;0.88;9.768;0.091;0.871;0.267;-0.633;-0.466;-0.224;-0.818;-0.151;0.0;26.0;-37.7;-6.7;190.4;0.3;-88.0;0.0;54.99;39.46891;-0.34095;69.4;NaN;;16.753;;0 / 18;9359;2021-10-27 17:39:51:403
-1.589;13.993;2.161;9.639;1.135;1.437;1.728;-4.039;-1.271;-0.276;-0.718;-0.247;3.0;24.6;-37.6;-8.0;196.0;-6.6;-81.5;0.0;54.99;39.46891;-0.34095;69.4;NaN;;16.753;;0 / 18;9409;2021-10-27 17:39:51:453
0.861;11.843;2.635;9.5;-0.728;2.313;0.57;-3.428;-1.689;-0.294;-0.661;-0.324;3.0;24.2;-37.9;-8.6;198.6;-1.1;-80.2;0.0;54.99;39.46891;-0.34095;69.4;NaN;;16.753;;0 / 18;9459;2021-10-27 17:39:51:503
3.346;5.488;4.727;6.704;-4.31;5.717;-3.342;3.843;-2.82;-0.665;-0.028;0.041;3.0;23.2;-38.6;-8.2;210.2;19.4;-60.6;0.0;54.99;39.46891;-0.34095;69.4;NaN;;16.753;;0 / 18;9508;2021-10-27 17:39:51:552
3.872;13.617;-2.759;9.323;-2.581;-1.628;-2.069;-0.419;-1.499;-0.573;-0.038;0.639;3.0;22.6;-40.6;-5.2;200.2;13.0;-75.2;0.0;54.99;39.46891;-0.34095;69.4;NaN;;16.753;;0 / 18;9559;2021-10-27 17:39:51:603
3.229;9.311;-1.18;9.347;-2.959;0.192;-2.573;-0.307;3.974;0.018;-0.711;1.051;3.0;21.9;-41.8;-1.6;173.9;18.0;-106.7;0.0;54.99;39.46891;-0.34095;69.4;NaN;;16.753;;0 / 18;9608;2021-10-27 17:39:51:652
1.22;9.047;0.895;9.692;-1.35;0.656;0.297;0.679;0.048;0.39;-0.483;0.711;3.0;21.7;-43.7;4.1;180.6;9.6;-78.6;0.0;50.31;39.46891;-0.34095;69.4;NaN;;16.753;;0 / 18;9658;2021-10-27 17:39:51:702
2.285;7.451;-2.352;8.93;-2.84;-2.887;-0.668;2.068;3.124;0.39;-0.483;0.711;5.0;21.5;-44.2;7.7;161.7;14.7;-102.9;0.0;50.31;39.46891;-0.34095;69.4;NaN;;16.753;;0 / 18;9708;2021-10-27 17:39:51:752
2.573;5.625;-3.097;7.93;-3.658;-4.463;-0.599;3.707;3.179;0.39;-0.483;0.711;5.0;21.7;-44.5;12.2;154.1;18.8;-110.9;0.0;50.31;39.46891;-0.34095;69.4;NaN;;16.753;;0 / 18;9759;2021-10-27 17:39:51:803
1.917;5.737;-3.183;8.37;-2.37;-4.525;0.131;3.85;2.909;1.463;-0.436;0.506;5.0;21.9;-44.5;14.8;148.2;21.2;-121.8;0.0;50.31;39.46891;-0.34095;69.4;NaN;;16.753;;0 / 18;9809;2021-10-27 17:39:51:853
1.421;6.778;-2.877;8.849;-1.906;-3.778;1.018;3.103;1.98;1.583;-0.532;0.483;5.0;22.0;-43.8;17.5;148.2;11.2;-113.1;0.0;50.31;39.46891;-0.34095;69.4;NaN;;16.753;;0 / 18;9859;2021-10-27 17:39:51:903
2.276;7.535;-3.961;8.428;-2.557;-4.31;0.247;1.842;2.018;1.408;-0.34;0.295;5.0;22.5;-43.4;17.8;145.6;14.2;-116.8;0.0;50.31;39.46891;-0.34095;69.4;NaN;;16.753;;0 / 18;9909;2021-10-27 17:39:51:953
2.886;10.316;-4.926;8.514;-2.37;-4.247;-0.459;-1.262;2.511;1.002;-0.075;-0.095;5.0;22.9;-43.6;16.4;146.9;13.4;-115.6;0.0;56.25;39.46891;-0.34095;69.4;NaN;;16.753;;0 / 18;9958;2021-10-27 17:39:52:002
3.126;8.662;-6.405;7.614;-2.677;-5.569;-0.391;-0.634;3.409;0.891;-0.174;0.003;5.0;23.7;-43.8;15.7;148.1;14.0;-116.5;0.0;56.25;39.46891;-0.34095;69.4;NaN;;16.753;;0 / 18;10009;2021-10-27 17:39:52:053
2.69;10.807;-4.133;8.653;-2.567;-3.84;-0.58;0.895;1.803;0.721;-0.235;0.112;0.0;23.8;-44.2;14.6;148.5;15.2;-113.9;0.0;56.25;39.46891;-0.34095;69.4;NaN;;16.753;;0 / 18;10058;2021-10-27 17:39:52:102
3.88;10.287;-2.802;8.935;-3.864;-1.173;-5.337;-7.189;-0.724;0.325;0.284;0.082;0.0;23.9;-43.9;14.3;150.8;20.1;-103.7;0.0;56.25;39.46891;-0.34095;69.4;NaN;;16.753;;0 / 18;10108;2021-10-27 17:39:52:152
1.326;5.129;2.034;9.084;-2.461;2.753;1.229;3.726;-3.82;-0.043;0.525;0.075;0.0;24.1;-43.9;13.6;148.1;15.2;-120.6;0.0;56.25;39.46891;-0.34095;69.4;NaN;;16.753;;0 / 18;10159;2021-10-27 17:39:52:203
-0.507;9.73;0.38;9.764;0.522;0.761;2.29;1.099;-6.862;-0.728;1.511;-0.311;0.0;24.7;-43.3;11.5;168.5;-3.1;-85.5;0.0;56.25;39.46891;-0.34095;69.4;NaN;;16.753;;0 / 18;10208;2021-10-27 17:39:52:252
1.814;10.603;0.052;9.663;-1.686;0.091;0.875;-2.32;-2.502;-1.093;1.938;-0.918;0.0;25.0;-43.1;9.7;166.1;8.9;-89.0;0.0;56.25;39.46891;-0.34095;69.4;NaN;;16.753;;0 / 18;10259;2021-10-27 17:39:52:303
1.242;8.322;-0.466;9.668;-1.647;-0.105;0.982;0.555;-1.573;-1.153;1.97;-0.986;0.0;25.7;-43.0;7.4;168.0;8.8;-92.7;0.0;58.45;39.46891;-0.34095;69.4;NaN;;16.753;;0 / 18;10309;2021-10-27 17:39:52:353
0.564;8.368;3.085;9.237;-0.297;3.275;1.456;1.171;-3.977;-1.153;1.97;-0.986;0.0;26.0;-42.5;4.6;182.9;6.9;-75.0;0.0;58.45;39.46891;-0.34095;69.4;NaN;;16.753;;0 / 18;10358;2021-10-27 17:39:52:402
-0.268;9.55;1.089;9.74;0.249;1.111;2.107;0.535;-1.541;-0.753;0.559;-0.616;0.0;26.3;-41.3;0.8;185.7;-3.1;-76.1;0.0;58.45;39.46891;-0.34095;69.4;NaN;;16.753;;0 / 18;10409;2021-10-27 17:39:52:453
-0.378;10.278;0.861;9.802;0.239;0.091;1.813;-0.592;-0.495;-0.822;0.438;-0.573;0.0;26.1;-40.6;-1.3;184.8;-1.6;-82.3;0.0;58.45;39.46891;-0.34095;69.4;NaN;;16.753;;0 / 18;10458;2021-10-27 17:39:52:502
-0.148;9.251;1.34;9.682;0.144;1.561;1.397;0.551;0.124;-0.641;-0.145;-0.727;0.0;25.9;-39.9;-4.3;186.9;-0.3;-88.1;0.0;58.45;39.46891;-0.34095;69.4;NaN;;16.753;;0 / 18;10509;2021-10-27 17:39:52:553
0.325;9.483;1.414;9.72;-0.206;1.293;0.29;0.182;-1.04;-0.411;-0.813;-0.628;0.0;24.8;-39.7;-6.4;194.3;4.5;-81.4;0.0;58.45;39.46891;-0.34095;69.4;NaN;;16.753;;0 / 18;10559;2021-10-27 17:39:52:603
-1.845;9.007;1.381;9.433;2.289;1.393;2.053;0.631;-0.665;-0.327;-1.08;-0.535;0.0;23.2;-39.4;-8.9;194.3;-2.5;-84.6;0.0;60.19;39.46891;-0.34095;69.4;NaN;;16.753;;0 / 18;10609;2021-10-27 17:39:52:653
0.117;9.725;0.943;9.764;-0.263;0.895;1.022;-0.299;-0.54;-0.343;-1.091;-0.656;0.0;22.1;-39.1;-10.1;196.9;-14.0;-82.0;0.0;60.19;39.46891;-0.34095;69.4;NaN;;16.753;;0 / 18;10658;2021-10-27 17:39:52:702
1.385;8.547;0.507;9.62;-1.757;0.728;-0.69;0.722;1.909;-0.247;-1.285;-0.569;0.0;19.7;-38.7;-11.6;201.1;10.3;-85.7;0.0;60.19;39.46891;-0.34095;69.4;NaN;;16.753;;0 / 18;10708;2021-10-27 17:39:52:752
1.022;13.435;4.466;9.227;-0.532;3.29;-1.448;-3.096;-2.477;-0.19;-1.337;-0.061;0.0;18.1;-38.3;-12.5;204.5;6.7;-78.4;0.0;60.19;39.46891;-0.34095;69.4;NaN;;16.753;;0 / 18;10759;2021-10-27 17:39:52:803
4.018;5.311;6.187;5.296;-4.875;6.661;-1.839;2.648;-4.611;-0.599;-0.531;0.369;0.0;14.5;-38.8;-13.1;206.8;4.4;-63.0;0.0;60.19;39.46891;-0.34095;69.4;NaN;;16.753;;0 / 18;10809;2021-10-27 17:39:52:853
5.723;12.32;-4.306;8.322;-4.003;-3.314;-5.007;-1.482;5.228;-0.825;-0.023;1.192;0.0;11.5;-39.6;-12.7;207.8;29.7;-39.5;0.0;60.19;39.46891;-0.34095;69.4;NaN;;16.753;;0 / 18;10859;2021-10-27 17:39:52:903
2.465;10.098;6.199;8.337;-1.973;4.769;-2.01;-0.956;-4.053;-0.677;-0.072;1.124;0.0;4.6;-40.6;-10.7;196.6;11.6;-60.2;0.0;51.3;39.46891;-0.34095;69.4;NaN;;16.753;;0 / 18;10909;2021-10-27 17:39:52:953
3.504;11.606;-1.788;9.237;-2.897;-1.566;-1.599;-1.996;3.788;-0.759;0.266;1.199;0.0;-1.3;-40.8;-9.2;192.9;15.3;-97.4;0.0;51.3;39.46891;-0.34095;69.4;NaN;;16.753;;0 / 18;10958;2021-10-27 17:39:53:002
0.744;8.394;-1.057;9.62;-1.092;-1.575;0.218;0.765;4.441;0.115;-1.793;0.552;0.0;-10.2;-39.2;-6.1;192.2;16.8;-103.6;0.0;51.3;39.46891;-0.34095;69.4;NaN;;16.753;;0 / 18;11008;2021-10-27 17:39:53:052
-1.864;7.927;-2.254;8.983;2.025;-3.376;4.264;1.293;1.529;-0.469;-5.886;-0.913;0.0;-14.9;-37.9;-3.2;184.4;-4.3;-80.9;0.0;51.3;39.46891;-0.34095;69.4;NaN;;16.753;;0 / 18;11059;2021-10-27 17:39:53:103
0.909;5.562;-6.149;6.651;-1.987;-6.929;2.484;3.538;6.599;0.139;-7.801;-0.281;0.0;-20.1;-35.6;1.0;199.8;11.7;-136.2;0.0;51.3;39.46891;-0.34095;69.4;NaN;;16.753;;0 / 18;11109;2021-10-27 17:39:53:153
3.585;6.953;-3.394;7.987;-4.123;-3.926;-1.097;2.37;2.681;0.354;-6.785;0.45;0.0;-22.3;-34.0;3.7;189.7;24.8;-118.1;0.0;51.3;39.46891;-0.34095;69.4;NaN;;16.753;;0 / 18;11159;2021-10-27 17:39:53:203
3.647;7.022;-6.223;6.776;-3.548;-6.139;-0.891;2.501;4.284;1.043;-4.468;1.209;0.0;-25.5;-31.9;7.0;195.5;21.7;-128.5;0.0;51.3;39.46891;-0.34095;69.4;NaN;;16.753;;0 / 18;11209;2021-10-27 17:39:53:253
4.95;7.597;-3.906;7.614;-4.908;-3.759;-2.126;1.079;1.924;0.765;-2.25;1.625;0.0;-26.8;-30.9;8.8;191.4;30.6;-124.2;0.0;59.89;39.46891;-0.34095;69.4;NaN;;16.753;;0 / 18;11258;2021-10-27 17:39:53:302
5.098;6.089;-4.866;6.364;-5.282;-5.267;-0.756;3.101;1.053;0.247;-2.075;1.597;0.0;-27.9;-29.9;10.6;193.0;32.6;-129.6;0.0;59.89;39.46891;-0.34095;69.4;NaN;;16.753;;0 / 18;11308;2021-10-27 17:39:53:352
10.113;11.111;-4.306;6.948;-6.306;-2.863;-5.497;-2.156;-0.206;-0.09;-1.191;1.535;0.0;-28.4;-29.3;11.2;175.8;41.2;-105.6;0.0;59.89;39.46891;-0.34095;69.4;NaN;;16.753;;0 / 18;11358;2021-10-27 17:39:53:402
6.845;11.123;-4.892;8.001;-4.688;-3.184;-4.083;-2.778;2.689;-0.558;-1.234;1.55;0.0;-28.6;-29.0;11.5;185.1;34.2;-119.2;0.0;59.89;39.46891;-0.34095;69.4;NaN;;16.753;;0 / 18;11409;2021-10-27 17:39:53:453
1.357;5.909;-0.713;9.39;-2.744;-0.656;4.057;1.523;-1.934;-2.477;-3.908;1.945;0.0;-28.4;-29.0;11.5;175.5;18.2;-105.3;0.0;59.89;39.46891;-0.34095;69.4;NaN;;16.753;;0 / 18;11458;2021-10-27 17:39:53:502
3.171;10.067;0.919;9.409;-2.715;0.464;0.776;0.087;-6.194;-4.04;-5.804;1.973;0.0;-28.1;-29.8;11.5;159.8;16.1;-87.2;0.0;59.89;39.46891;-0.34095;69.4;NaN;;16.753;;0 / 18;11508;2021-10-27 17:39:53:552
-0.698;9.687;0.521;9.596;-0.072;2.035;5.492;-2.041;-1.383;-2.812;-4.801;0.0;0.0;-27.2;-30.4;12.1;162.9;-7.8;-98.4;0.0;61.36;39.46891;-0.34095;69.4;NaN;;16.753;;0 / 18;11559;2021-10-27 17:39:53:603
1.139;7.736;2.599;9.692;-1.073;1.058;2.291;1.29;-5.76;-2.812;-4.801;0.0;0.0;-25.9;-31.5;13.0;147.5;3.7;-71.5;0.0;61.36;39.46891;-0.34095;69.4;NaN;;16.753;;0 / 18;11608;2021-10-27 17:39:53:652
0.665;9.057;0.773;9.687;-0.651;1.379;1.849;0.065;-2.33;-1.589;-3.003;-0.654;0.0;-24.6;-32.5;13.3;170.1;2.7;-105.6;0.0;61.36;39.46891;-0.34095;69.4;NaN;;16.753;;0 / 18;11659;2021-10-27 17:39:53:703
0.277;8.87;0.66;9.783;-0.316;0.599;1.833;0.8;-2.911;-1.705;-2.887;-0.78;0.0;-22.9;-34.3;14.0;156.1;1.8;-86.5;0.0;61.36;39.46891;-0.34095;69.4;NaN;;16.753;;0 / 18;11709;2021-10-27 17:39:53:753
-0.004;9.186;0.088;9.807;0.029;-0.158;1.595;0.552;-1.434;-1.061;-2.161;-0.526;0.0;-22.1;-35.4;14.2;155.8;0.0;-85.5;0.0;61.36;39.46891;-0.34095;69.4;NaN;;16.753;;0 / 18;11758;2021-10-27 17:39:53:802
0.399;9.605;-0.438;9.792;-0.445;-0.306;0.839;0.085;-0.679;-0.902;-1.97;-0.498;0.0;-20.8;-36.3;14.5;160.6;1.1;-95.7;0.0;61.36;39.46891;-0.34095;69.4;NaN;;16.753;;0 / 18;11808;2021-10-27 17:39:53:852
-0.282;8.949;-0.517;9.792;0.148;-0.565;1.264;0.786;-0.266;-0.615;-1.578;-0.368;0.0;-19.4;-37.0;14.8;158.0;-0.8;-90.4;0.0;61.36;39.46891;-0.34095;69.4;NaN;;16.753;;0 / 18;11859;2021-10-27 17:39:53:903
0.131;8.818;0.268;9.802;-0.139;0.23;0.875;1.137;-0.482;-0.392;-1.272;-0.347;0.0;-18.2;-37.6;14.6;158.0;0.8;-88.7;0.0;60.67;39.46891;-0.34095;69.4;NaN;;16.753;;0 / 18;11909;2021-10-27 17:39:53:953
0.335;9.035;-0.916;9.735;0.33;-1.125;0.459;0.829;0.472;-0.246;-1.071;-0.28;0.0;-18.2;-38.1;14.2;163.0;2.5;-96.5;0.0;60.67;39.46891;-0.34095;69.4;NaN;;16.753;;0 / 18;11959;2021-10-27 17:39:54:003
-0.564;9.658;2.084;9.572;0.517;2.078;0.882;0.126;-0.791;0.001;-0.629;-0.24;0.0;-18.2;-38.0;14.6;157.3;-2.4;-88.2;0.0;60.67;39.46891;-0.34095;69.4;NaN;;16.753;;0 / 18;12008;2021-10-27 17:39:54:052
0.258;10.132;1.036;9.759;-0.34;0.924;0.161;-0.314;-1.456;-0.235;-0.777;-0.211;5.0;-18.0;-38.1;14.5;156.5;-2.2;-82.3;0.0;60.67;39.46891;-0.34095;69.4;NaN;;16.753;;0 / 18;12059;2021-10-27 17:39:54:103
-0.354;13.773;2.836;9.596;0.393;1.987;-0.334;-2.104;-2.147;-0.676;-1.097;-0.234;5.0;-18.2;-37.8;15.1;153.9;-2.3;-78.3;0.0;60.67;39.46891;-0.34095;69.4;NaN;;16.753;;0 / 18;12109;2021-10-27 17:39:54:153
1.23;14.656;1.33;9.749;-0.948;0.57;-0.807;-5.028;-1.614;-0.758;-1.148;-0.17;5.0;-18.2;-37.9;15.4;154.2;-1.0;-78.8;0.0;60.67;39.46891;-0.34095;69.4;NaN;;16.753;;0 / 18;12158;2021-10-27 17:39:54:202
2.984;6.886;5.136;7.398;-3.275;5.545;-2.549;1.135;-2.766;-0.59;-1.118;0.031;5.0;-18.8;-37.6;16.6;154.2;13.8;-77.9;0.0;49.12;39.46891;-0.34095;69.4;NaN;;16.753;;0 / 18;12209;2021-10-27 17:39:54:253
2.352;8.825;-0.09;9.433;-2.672;0.124;-1.998;1.535;0.765;-0.59;-1.118;0.031;5.0;-19.1;-37.2;18.2;146.3;21.3;-57.0;0.0;49.12;39.46891;-0.34095;69.4;NaN;;16.753;;0 / 18;12259;2021-10-27 17:39:54:303
3.027;10.436;-1.452;9.333;-2.782;-1.135;-2.277;-2.115;3.518;-0.546;-1.656;0.497;5.0;-20.1;-35.2;21.1;155.2;16.5;-96.9;0.0;49.12;39.46891;-0.34095;69.4;NaN;;16.753;;0 / 18;12308;2021-10-27 17:39:54:352
1.95;7.999;0.651;9.519;-2.203;0.814;-0.65;1.559;0.318;-0.252;-1.862;0.857;9.0;-20.6;-33.1;23.8;145.6;15.7;-86.2;0.0;49.12;39.46891;-0.34095;69.4;NaN;;16.753;;0 / 18;12359;2021-10-27 17:39:54:403
2.68;9.44;-1.081;9.357;-2.696;-1.178;-0.673;-0.171;1.474;0.378;-1.008;0.634;9.0;-22.1;-30.8;26.5;144.8;11.8;-91.7;0.0;49.12;39.46891;-0.34095;69.4;NaN;;16.753;;0 / 18;12409;2021-10-27 17:39:54:453
2.477;6.946;-2.221;8.772;-3.156;-3.05;-0.657;2.787;2.768;0.509;-0.591;0.505;9.0;-22.7;-29.5;27.8;147.7;18.4;-98.4;0.0;49.12;39.46891;-0.34095;69.4;NaN;;16.753;;0 / 18;12459;2021-10-27 17:39:54:503
2.12;6.096;-3.044;8.337;-2.916;-4.262;0.061;3.729;3.28;0.509;-0.591;0.505;9.0;-23.4;-28.4;29.2;157.3;17.3;-117.1;0.0;51.61;39.46891;-0.34095;69.4;NaN;;16.753;;0 / 18;12508;2021-10-27 17:39:54:552
3.013;7.111;-3.973;8.021;-3.256;-4.611;-0.805;2.483;3.124;1.577;0.031;0.537;9.0;-23.3;-27.6;29.5;158.0;20.4;-118.3;0.0;51.61;39.46891;-0.34095;69.4;NaN;;16.753;;0 / 18;12558;2021-10-27 17:39:54:602
2.283;7.69;-4.866;8.04;-2.337;-5.104;0.049;1.719;3.345;1.922;0.556;0.236;9.0;-22.9;-26.8;29.9;158.9;14.4;-121.6;0.0;51.61;39.46891;-0.34095;69.4;NaN;;16.753;;0 / 18;12609;2021-10-27 17:39:54:653
2.441;7.121;-4.251;8.025;-2.82;-4.884;0.007;2.23;2.355;1.807;0.774;-0.05;9.0;-22.7;-26.6;30.1;161.5;15.5;-124.1;0.0;51.61;39.46891;-0.34095;69.4;NaN;;16.753;;0 / 18;12659;2021-10-27 17:39:54:703
2.609;8.868;-4.136;8.571;-2.538;-4.032;-0.143;0.751;0.997;1.513;0.656;-0.093;0.0;-22.5;-27.1;30.2;152.8;15.0;-115.2;0.0;51.61;39.46891;-0.34095;69.4;NaN;;16.753;;0 / 18;12708;2021-10-27 17:39:54:752
0.675;8.179;-6.867;7.523;-0.627;-6.258;1.664;0.521;3.271;1.147;0.64;-0.359;0.0;-22.4;-27.4;29.8;159.5;8.1;-125.1;0.0;51.61;39.46891;-0.34095;69.4;NaN;;16.753;;0 / 18;12759;2021-10-27 17:39:54:803
4.37;13.636;-4.854;8.873;-2.887;-3.017;-0.232;-0.988;1.599;1.014;0.658;-0.485;0.0;-22.5;-27.8;28.7;156.9;13.4;-118.6;0.0;51.61;39.46891;-0.34095;69.4;NaN;;16.753;;0 / 18;12808;2021-10-27 17:39:54:852
3.427;6.663;-2.654;7.858;-4.123;-4.18;-0.572;2.967;-0.759;-0.064;-0.348;0.267;0.0;-22.4;-27.7;28.1;148.0;20.3;-102.9;0.0;53.05;39.46891;-0.34095;69.4;NaN;;16.753;;0 / 18;12858;2021-10-27 17:39:54:902
-0.588;5.455;6.185;6.742;0.752;7.077;2.702;4.318;-9.659;-0.064;-0.348;0.267;0.0;-22.1;-28.3;28.0;128.8;-4.4;-43.6;0.0;53.05;39.46891;-0.34095;69.4;NaN;;16.753;;0 / 18;12909;2021-10-27 17:39:54:953
-0.344;11.3;-3.588;9.328;0.287;-3.007;2.747;-2.476;0.689;-0.064;-0.348;0.267;0.0;-21.6;-29.4;27.7;139.3;-1.7;-98.8;0.0;53.05;39.46891;-0.34095;69.4;NaN;;16.753;;0 / 18;12959;2021-10-27 17:39:55:003
-0.148;9.476;2.494;9.486;0.029;2.485;2.44;-0.609;-4.839;-1.72;-0.128;-1.081;0.0;-20.7;-30.2;27.1;134.5;-2.0;-80.9;0.0;53.05;39.46891;-0.34095;69.4;NaN;;16.753;;0 / 18;13008;2021-10-27 17:39:55:052
0.648;7.966;-0.801;9.744;-0.776;-0.776;0.889;1.617;-2.477;-1.134;-0.063;-0.833;0.0;-20.1;-31.1;26.5;134.9;4.7;-73.0;0.0;53.05;39.46891;-0.34095;69.4;NaN;;16.753;;0 / 18;13059;2021-10-27 17:39:55:103
0.203;9.004;2.853;9.242;-0.168;3.28;0.705;0.417;-2.468;-0.625;-0.026;-0.586;0.0;-19.3;-32.1;25.6;136.2;1.0;-70.5;0.0;53.05;39.46891;-0.34095;69.4;NaN;;16.753;;0 / 18;13109;2021-10-27 17:39:55:153
0.643;9.038;0.509;9.764;-0.694;0.575;0.372;0.665;-1.132;-1.231;-0.435;-0.336;0.0;-18.6;-32.7;24.8;138.9;1.3;-75.3;0.0;58.55;39.46891;-0.34095;69.4;NaN;;16.753;;0 / 18;13158;2021-10-27 17:39:55:202
0.897;9.004;1.352;9.658;-0.929;1.413;-0.081;0.737;-1.425;-0.924;-0.384;-0.227;0.0;-18.7;-33.7;23.8;143.4;5.9;-84.7;0.0;58.55;39.46891;-0.34095;69.4;NaN;;16.753;;0 / 18;13209;2021-10-27 17:39:55:253
0.777;8.765;0.454;9.749;-0.943;0.503;0.043;0.999;-0.238;-0.694;-0.318;-0.123;0.0;-18.9;-34.1;22.7;145.0;4.6;-84.5;0.0;58.55;39.46891;-0.34095;69.4;NaN;;16.753;;0 / 18;13258;2021-10-27 17:39:55:302
0.591;10.201;0.349;9.783;-0.599;0.311;0.261;-0.177;-0.09;-0.262;-0.179;0.005;0.0;-19.6;-34.4;21.5;148.4;3.5;-88.2;0.0;58.55;39.46891;-0.34095;69.4;NaN;;16.753;;0 / 18;13308;2021-10-27 17:39:55:352
-0.39;10.476;1.139;9.744;0.249;1.053;0.886;-0.943;-0.633;-0.143;0.024;-0.019;5.0;-20.2;-34.8;20.5;148.5;1.5;-84.9;0.0;58.55;39.46891;-0.34095;69.4;NaN;;16.753;;0 / 18;13358;2021-10-27 17:39:55:402
-0.335;11.759;1.768;9.72;0.206;1.293;0.835;-1.268;0.358;-0.048;0.304;-0.166;5.0;-20.9;-34.7;20.0;147.8;-2.1;-85.4;0.0;58.55;39.46891;-0.34095;69.4;NaN;;16.753;;0 / 18;13408;2021-10-27 17:39:55:452
-0.962;13.346;1.606;9.735;0.603;1.034;1.601;-3.672;-1.252;-0.24;0.545;-0.366;5.0;-21.5;-34.5;19.7;145.2;-2.9;-78.6;0.0;58.55;39.46891;-0.34095;69.4;NaN;;16.753;;0 / 18;13459;2021-10-27 17:39:55:503
3.073;7.954;3.513;8.212;-3.309;4.223;-2.699;2.055;-3.149;-0.25;0.555;-0.341;5.0;-22.3;-33.4;20.6;146.3;15.4;-80.1;0.0;52.49;39.46891;-0.34095;69.4;NaN;;16.753;;0 / 18;13509;2021-10-27 17:39:55:553
3.789;5.72;4.794;6.934;-4.243;5.492;-3.13;3.764;-3.612;-0.25;0.555;-0.341;5.0;-22.7;-32.5;21.5;134.7;29.1;-52.3;0.0;52.49;39.46891;-0.34095;69.4;NaN;;16.753;;0 / 18;13558;2021-10-27 17:39:55:602
3.772;12.717;-1.318;9.347;-2.816;-0.934;-2.892;-3.292;2.654;-0.25;0.555;-0.341;5.0;-23.6;-30.1;24.2;149.9;16.2;-94.2;0.0;52.49;39.46891;-0.34095;69.4;NaN;;16.753;;0 / 18;13608;2021-10-27 17:39:55:652
1.424;9.632;-0.057;9.716;-1.346;0.029;-1.184;-0.767;1.403;-0.39;-0.955;1.0;5.0;-24.5;-28.1;26.0;145.3;15.7;-92.3;0.0;52.49;39.46891;-0.34095;69.4;NaN;;16.753;;0 / 18;13659;2021-10-27 17:39:55:703
1.682;8.552;-0.303;9.524;-2.198;-0.819;0.326;0.895;1.505;0.084;-0.439;0.69;12.0;-25.3;-25.3;28.4;139.8;12.9;-94.9;0.0;52.49;39.46891;-0.34095;69.4;NaN;;16.753;;0 / 18;13708;2021-10-27 17:39:55:752
2.901;6.979;-1.929;8.753;-3.706;-2.428;-0.869;1.943;2.892;0.984;0.219;0.248;12.0;-25.7;-24.0;29.2;148.8;22.2;-105.5;0.0;52.49;39.46891;-0.34095;69.4;NaN;;16.753;;0 / 18;13759;2021-10-27 17:39:55:803
2.771;6.053;-2.51;8.399;-3.601;-3.563;-1.152;3.43;3.176;1.102;0.108;0.368;12.0;-26.2;-22.9;29.9;151.7;25.5;-110.1;0.0;50.85;39.46891;-0.34095;69.4;NaN;;16.753;;0 / 18;13808;2021-10-27 17:39:55:852
1.946;6.359;-3.743;8.092;-2.533;-4.927;-0.094;3.485;3.89;1.823;0.258;0.571;12.0;-26.4;-22.0;30.1;157.8;19.4;-119.2;0.0;50.85;39.46891;-0.34095;69.4;NaN;;16.753;;0 / 18;13859;2021-10-27 17:39:55:903
1.943;7.128;-3.671;8.466;-2.222;-4.429;0.779;2.738;2.692;1.932;0.519;0.333;12.0;-26.6;-21.3;30.2;154.1;13.1;-117.6;0.0;50.85;39.46891;-0.34095;69.4;NaN;;16.753;;0 / 18;13909;2021-10-27 17:39:55:953
2.52;7.76;-4.365;8.207;-2.605;-4.693;-0.016;1.573;2.171;1.839;0.815;-0.165;12.0;-26.0;-21.3;30.1;154.1;15.8;-117.3;0.0;50.85;39.46891;-0.34095;69.4;NaN;;16.753;;0 / 18;13959;2021-10-27 17:39:56:003
2.175;9.016;-4.825;8.48;-2.035;-4.487;0.318;0.458;2.494;1.376;0.692;-0.34;12.0;-25.2;-21.5;29.8;156.4;12.5;-120.7;0.0;50.85;39.46891;-0.34095;69.4;NaN;;16.753;;0 / 18;14008;2021-10-27 17:39:56:052
3.231;9.481;-5.601;8.097;-2.772;-4.784;-0.705;-0.536;2.448;1.088;0.524;-0.222;0.0;-24.9;-22.1;29.8;152.5;12.6;-117.2;0.0;50.85;39.46891;-0.34095;69.4;NaN;;16.753;;0 / 18;14058;2021-10-27 17:39:56:102
3.925;11.056;-5.517;8.49;-3.036;-3.869;-0.925;-0.619;2.183;0.929;0.395;-0.144;0.0;-24.2;-23.0;29.2;153.1;18.0;-114.5;0.0;50.85;39.46891;-0.34095;69.4;NaN;;16.753;;0 / 18;14109;2021-10-27 17:39:56:153
2.743;8.138;-3.367;8.595;-3.266;-3.409;-1.206;-0.95;0.217;0.419;-0.036;0.235;0.0;-24.1;-23.5;29.5;150.1;23.0;-108.5;0.0;53.63;39.46891;-0.34095;69.4;NaN;;16.753;;0 / 18;14159;2021-10-27 17:39:56:203
-0.071;6.838;4.282;8.49;0.292;4.903;2.134;3.343;-7.864;0.419;-0.036;0.235;0.0;-22.8;-24.4;29.5;125.1;10.3;-69.2;0.0;53.63;39.46891;-0.34095;69.4;NaN;;16.753;;0 / 18;14208;2021-10-27 17:39:56:252
-0.169;9.895;-1.22;9.73;0.493;-1.12;3.001;-1.211;-1.936;0.419;-0.036;0.235;0.0;-21.8;-25.4;29.3;125.1;-5.2;-80.2;0.0;53.63;39.46891;-0.34095;69.4;NaN;;16.753;;0 / 18;14259;2021-10-27 17:39:56:303
1.361;9.304;1.192;9.634;-1.302;1.274;1.245;0.026;-3.918;-1.771;-0.438;-0.758;0.0;-19.6;-26.9;28.6;132.6;7.6;-82.5;0.0;53.63;39.46891;-0.34095;69.4;NaN;;16.753;;0 / 18;14308;2021-10-27 17:39:56:352
0.981;8.265;-0.445;9.744;-1.015;-0.45;0.854;1.275;-1.26;-1.872;-0.482;-0.82;0.0;-18.3;-28.5;28.1;138.2;8.4;-90.1;0.0;53.63;39.46891;-0.34095;69.4;NaN;;16.753;;0 / 18;14358;2021-10-27 17:39:56:402
-0.351;8.746;1.419;9.629;0.464;1.786;1.685;0.968;-2.208;-0.864;-0.463;-0.501;0.0;-16.9;-29.8;27.2;136.7;0.0;-88.8;0.0;53.63;39.46891;-0.34095;69.4;NaN;;16.753;;0 / 18;14409;2021-10-27 17:39:56:453
-0.466;9.586;0.821;9.783;0.412;0.565;2.432;0.62;-3.583;-1.058;-0.544;-0.501;0.0;-15.6;-30.7;26.8;133.7;-4.6;-71.0;0.0;55.2;39.46891;-0.34095;69.4;NaN;;16.753;;0 / 18;14458;2021-10-27 17:39:56:502
0.124;8.997;0.382;9.802;0.254;0.283;0.627;-0.084;0.482;-0.701;-0.388;-0.545;0.0;-14.0;-31.8;25.4;141.3;-1.5;-88.3;0.0;55.2;39.46891;-0.34095;69.4;NaN;;16.753;;0 / 18;14509;2021-10-27 17:39:56:553
0.141;8.641;-0.033;9.807;-0.124;-0.062;0.421;1.072;-0.187;-0.491;-0.344;-0.472;0.0;-13.1;-32.4;24.8;142.2;0.7;-90.4;0.0;55.2;39.46891;-0.34095;69.4;NaN;;16.753;;0 / 18;14559;2021-10-27 17:39:56:603
-0.457;9.196;1.239;9.706;0.503;1.317;0.755;0.572;-1.108;-0.197;-0.325;-0.324;0.0;-12.6;-33.0;23.9;142.5;-1.2;-84.3;0.0;55.2;39.46891;-0.34095;69.4;NaN;;16.753;;0 / 18;14608;2021-10-27 17:39:56:652
0.256;9.701;0.758;9.768;-0.316;0.809;0.487;0.046;-0.688;-0.167;-0.321;-0.224;0.0;-12.4;-33.7;22.6;144.1;-0.5;-85.9;0.0;55.2;39.46891;-0.34095;69.4;NaN;;16.753;;0 / 18;14659;2021-10-27 17:39:56:703
0.454;10.216;0.512;9.783;-0.546;0.426;-0.111;-0.443;-0.391;-0.388;-0.434;-0.134;13.0;-12.2;-33.8;21.4;147.1;1.1;-83.9;0.0;55.2;39.46891;-0.34095;69.4;NaN;;16.753;;0 / 18;14709;2021-10-27 17:39:56:753
0.167;10.0;1.06;9.759;0.0;0.948;-0.089;-0.079;-0.655;-0.369;-0.377;-0.045;13.0;-11.8;-33.5;20.8;146.7;4.3;-84.2;0.0;55.2;39.46891;-0.34095;69.4;NaN;;16.753;;0 / 18;14758;2021-10-27 17:39:56:802
-0.55;13.44;2.187;9.615;1.025;1.628;1.817;-3.844;-1.755;-0.315;-0.35;-0.011;13.0;-11.8;-33.4;20.3;146.1;-4.6;-81.3;0.0;51.81;39.46891;-0.34095;69.4;NaN;;16.753;;0 / 18;14808;2021-10-27 17:39:56:852
2.238;8.554;2.621;9.357;-1.652;2.428;-0.728;-1.698;-1.202;-0.315;-0.35;-0.011;13.0;-11.9;-32.3;20.3;146.5;-1.3;-80.7;0.0;51.81;39.46891;-0.34095;69.4;NaN;;16.753;;0 / 18;14858;2021-10-27 17:39:56:902
3.296;6.953;4.509;7.992;-3.472;4.501;-3.238;4.242;-3.647;-0.743;-0.712;0.232;13.0;-12.5;-31.0;21.1;140.2;20.7;-60.6;0.0;51.81;39.46899;-0.34099;69.9;NaN;;14.087;;0 / 18;14908;2021-10-27 17:39:56:952
3.535;13.22;-2.707;9.304;-2.571;-1.733;-2.744;-3.773;4.012;-0.413;-1.184;0.734;13.0;-12.9;-29.4;21.8;149.1;12.3;-101.0;0.0;51.81;39.46899;-0.34099;69.9;NaN;;14.087;;0 / 18;14959;2021-10-27 17:39:57:003
2.12;9.016;0.509;9.476;-2.035;1.484;-1.115;0.503;1.048;-0.165;-1.304;0.911;13.0;-14.0;-26.5;23.6;142.3;13.5;-88.2;0.0;51.81;39.46899;-0.34099;69.9;NaN;;14.087;;0 / 18;15008;2021-10-27 17:39:57:052
1.579;9.0;-1.069;9.519;-1.8;-1.527;0.146;0.466;0.769;0.126;-0.767;0.655;20.0;-14.9;-25.0;24.7;136.5;9.8;-80.7;0.0;51.81;39.46899;-0.34099;69.9;NaN;;14.087;;0 / 18;15059;2021-10-27 17:39:57:103
2.314;7.135;-3.109;8.6;-2.82;-3.773;-0.656;2.394;3.871;1.137;0.024;0.355;20.0;-15.7;-23.8;25.0;147.2;13.7;-109.7;0.0;53.35;39.46899;-0.34099;69.9;NaN;;14.087;;0 / 18;15108;2021-10-27 17:39:57:152
2.563;6.027;-2.403;8.681;-3.749;-2.605;-0.601;3.549;1.92;1.029;0.096;0.359;20.0;-16.3;-22.5;25.4;144.6;20.7;-104.7;0.0;53.35;39.46899;-0.34099;69.9;NaN;;14.087;;0 / 18;15159;2021-10-27 17:39:57:203
2.575;6.73;-2.822;8.547;-3.179;-3.615;-0.522;2.918;2.382;1.587;0.126;0.547;20.0;-16.8;-22.2;25.6;150.7;20.5;-114.3;0.0;53.35;39.46899;-0.34099;69.9;NaN;;14.087;;0 / 18;15209;2021-10-27 17:39:57:253
2.178;8.325;-3.547;8.748;-2.342;-3.768;0.225;1.393;1.939;1.454;0.222;0.483;20.0;-17.6;-21.9;25.1;148.9;15.4;-112.0;0.0;53.35;39.46899;-0.34099;69.9;NaN;;14.087;;0 / 18;15259;2021-10-27 17:39:57:303
1.711;7.458;-4.521;8.212;-1.882;-5.018;0.364;1.42;2.717;1.403;0.693;0.039;20.0;-18.2;-22.1;25.0;150.2;13.8;-113.3;0.0;53.35;39.46899;-0.34099;69.9;NaN;;14.087;;0 / 18;15308;2021-10-27 17:39:57:352
2.25;8.602;-4.861;8.279;-2.207;-4.769;0.222;0.635;2.236;1.433;1.185;-0.446;0.0;-19.3;-22.0;24.4;156.2;12.5;-118.2;0.0;53.35;39.46899;-0.34099;69.9;NaN;;14.087;;0 / 18;15359;2021-10-27 17:39:57:403
1.685;8.995;-4.816;8.562;-1.59;-4.506;0.384;0.519;2.156;1.417;1.368;-0.655;0.0;-19.5;-22.3;24.2;158.8;12.7;-121.0;0.0;53.35;39.46899;-0.34099;69.9;NaN;;14.087;;0 / 18;15408;2021-10-27 17:39:57:452
3.013;9.699;-5.505;8.25;-2.495;-4.678;-0.845;-0.929;2.342;1.376;1.423;-0.726;0.0;-20.4;-22.2;23.9;155.4;12.3;-116.3;0.0;55.03;39.46899;-0.34099;69.9;NaN;;14.087;;0 / 18;15459;2021-10-27 17:39:57:503
5.641;12.384;-3.135;8.753;-3.879;-2.131;-2.941;-2.773;-0.705;1.376;1.423;-0.726;0.0;-21.1;-22.0;23.8;151.9;24.1;-107.3;0.0;55.03;39.46899;-0.34099;69.9;NaN;;14.087;;0 / 18;15508;2021-10-27 17:39:57:552
0.277;4.669;4.595;7.259;-0.101;6.594;1.584;4.869;-7.769;-0.39;-0.03;0.42;0.0;-21.9;-22.0;24.2;123.6;11.9;-48.6;0.0;55.03;39.46899;-0.34099;69.9;NaN;;14.087;;0 / 18;15559;2021-10-27 17:39:57:603
-1.606;10.646;-0.095;9.716;1.283;-0.316;3.827;-1.895;-2.558;-1.112;-0.127;0.104;0.0;-22.4;-23.0;24.8;122.9;-7.5;-66.5;0.0;55.03;39.46899;-0.34099;69.9;NaN;;14.087;;0 / 18;15609;2021-10-27 17:39:57:653
0.677;10.074;1.419;9.658;-0.781;1.523;1.643;-1.322;-3.622;-1.843;0.102;-0.812;0.0;-22.4;-24.1;25.0;133.3;-1.6;-93.3;0.0;55.03;39.46899;-0.34099;69.9;NaN;;14.087;;0 / 18;15658;2021-10-27 17:39:57:702
1.062;8.133;0.832;9.644;-1.279;1.245;0.621;1.847;-2.28;-1.812;0.158;-1.053;0.0;-21.9;-25.9;24.7;135.6;7.5;-82.6;0.0;55.03;39.46899;-0.34099;69.9;NaN;;14.087;;0 / 18;15710;2021-10-27 17:39:57:754
0.418;9.39;-0.196;9.802;-0.144;0.187;0.899;0.265;-0.707;-0.76;0.132;-0.55;0.0;-21.6;-26.5;24.2;140.1;1.8;-92.2;0.0;55.74;39.46899;-0.34099;69.9;NaN;;14.087;;0 / 18;15759;2021-10-27 17:39:57:803
-0.483;8.82;0.002;9.778;0.718;0.091;1.649;1.088;-1.521;-0.791;-0.007;-0.367;0.0;-21.2;-27.9;23.3;137.3;-3.0;-84.4;0.0;55.74;39.46899;-0.34099;69.9;NaN;;14.087;;0 / 18;15808;2021-10-27 17:39:57:852
0.165;8.959;0.234;9.807;-0.177;0.177;0.871;0.828;-0.521;-0.457;0.06;-0.335;0.0;-20.9;-28.8;22.4;140.7;-1.9;-91.8;0.0;55.74;39.46899;-0.34099;69.9;NaN;;14.087;;0 / 18;15858;2021-10-27 17:39:57:902
-0.011;8.787;-0.009;9.807;0.105;0.0;0.796;1.023;-0.332;-0.302;0.158;-0.37;0.0;-20.0;-30.1;21.2;144.8;-0.6;-90.0;0.0;55.74;39.46899;-0.34099;69.9;NaN;;14.087;;0 / 18;15909;2021-10-27 17:39:57:953
0.469;9.438;1.06;9.74;-0.498;1.034;0.314;0.606;-0.923;-0.157;0.267;-0.357;0.0;-19.7;-30.7;20.2;146.4;1.9;-87.1;0.0;55.74;39.46899;-0.34099;69.9;NaN;;14.087;;0 / 18;15959;2021-10-27 17:39:58:003
0.09;9.981;0.964;9.74;-0.024;1.144;0.224;-0.068;-0.924;-0.164;0.205;-0.243;0.0;-19.4;-31.0;19.0;147.0;2.4;-84.9;0.0;55.74;39.46899;-0.34099;69.9;NaN;;14.087;;0 / 18;16008;2021-10-27 17:39:58:052
0.184;10.57;0.952;9.768;-0.077;0.871;0.082;-1.046;-1.004;-0.382;0.004;-0.102;51.0;-19.5;-31.0;17.8;147.4;2.7;-82.5;0.0;55.74;39.46899;-0.34099;69.9;NaN;;14.087;;0 / 18;16058;2021-10-27 17:39:58:102
-1.507;13.277;0.856;9.72;1.034;0.752;1.2;-1.879;-0.953;-0.368;0.025;-0.09;51.0;-19.6;-31.0;17.3;147.4;-6.1;-85.6;0.0;51.96;39.46899;-0.34099;69.9;NaN;;14.087;;0 / 18;16109;2021-10-27 17:39:58:153
0.136;12.379;1.287;9.764;-0.747;0.57;0.376;-2.657;-0.963;-0.269;0.322;-0.263;51.0;-19.7;-30.9;16.9;147.5;-2.4;-83.0;0.0;51.96;39.46899;-0.34099;69.9;NaN;;14.087;;0 / 18;16159;2021-10-27 17:39:58:203
3.128;7.003;4.555;7.915;-3.213;4.822;-2.022;0.786;-1.99;-0.219;0.283;-0.163;51.0;-19.5;-30.5;17.2;146.9;13.1;-74.1;0.0;51.96;39.46899;-0.34099;69.9;NaN;;14.087;;0 / 18;16209;2021-10-27 17:39:58:253
3.966;8.808;2.4;9.189;-3.4;0.426;-3.557;1.788;-1.823;-0.769;-0.793;0.503;51.0;-19.3;-30.2;18.4;137.6;27.2;-51.5;0.0;51.96;39.46899;-0.34099;69.9;NaN;;14.087;;0 / 18;16258;2021-10-27 17:39:58:302
3.858;13.05;-2.139;9.237;-2.538;-2.093;-3.334;-4.299;2.734;-0.456;-1.182;0.942;51.0;-19.4;-28.7;20.3;155.7;15.0;-102.8;0.0;51.96;39.46899;-0.34099;69.9;NaN;;14.087;;0 / 18;16309;2021-10-27 17:39:58:353
1.146;8.246;1.754;9.639;-1.245;1.307;-0.538;0.776;2.65;-0.044;-1.001;0.902;44.0;-19.6;-27.4;22.6;138.6;7.3;-82.3;0.0;51.96;39.46899;-0.34099;69.9;NaN;;14.087;;0 / 18;16359;2021-10-27 17:39:58:403
2.779;7.798;-1.383;8.844;-3.462;-2.456;-0.701;1.713;0.99;0.601;-0.348;0.489;44.0;-20.4;-25.5;25.1;138.0;13.0;-83.0;0.0;49.09;39.46899;-0.34099;69.9;NaN;;14.087;;0 / 18;16409;2021-10-27 17:39:58:453
2.508;6.312;-3.02;8.399;-3.357;-3.792;-0.868;3.069;3.499;1.024;-0.24;0.411;44.0;-20.9;-24.6;26.5;155.9;20.5;-114.2;0.0;49.09;39.46899;-0.34099;69.9;NaN;;14.087;;0 / 18;16458;2021-10-27 17:39:58:502
2.594;5.952;-3.164;8.083;-3.472;-4.338;-0.561;3.648;2.554;0.915;-0.472;0.562;44.0;-22.0;-23.4;27.4;157.9;20.7;-118.2;0.0;49.09;39.46899;-0.34099;69.9;NaN;;14.087;;0 / 18;16508;2021-10-27 17:39:58:552
2.144;6.537;-3.329;8.413;-2.61;-4.314;0.277;3.05;2.34;1.78;0.007;0.583;44.0;-22.4;-22.7;27.5;155.8;16.8;-117.0;0.0;49.09;39.46899;-0.34099;69.9;NaN;;14.087;;0 / 18;16558;2021-10-27 17:39:58:602
2.185;7.465;-4.543;8.092;-2.538;-4.922;0.604;2.068;2.507;1.61;0.391;0.232;44.0;-22.2;-22.9;27.2;155.8;14.2;-118.0;0.0;49.09;39.46899;-0.34099;69.9;NaN;;14.087;;0 / 18;16609;2021-10-27 17:39:58:653
2.826;8.909;-4.705;8.375;-2.653;-4.362;-0.024;0.507;2.159;1.62;0.804;-0.265;44.0;-22.0;-23.9;27.4;158.6;15.5;-120.5;0.0;49.09;39.46899;-0.34099;69.9;NaN;;14.087;;0 / 18;16659;2021-10-27 17:39:58:703
2.867;9.359;-7.393;7.575;-2.246;-5.808;-0.539;-0.264;4.294;1.557;0.912;-0.431;3.0;-21.3;-24.7;27.4;164.8;13.2;-127.5;0.0;55.43;39.46899;-0.34099;69.9;NaN;;14.087;;0 / 18;16708;2021-10-27 17:39:58:752
2.649;10.843;-4.772;8.701;-2.188;-3.965;-0.111;-1.678;1.378;1.571;0.99;-0.519;3.0;-21.2;-25.3;27.4;156.0;13.6;-117.9;0.0;55.43;39.46899;-0.34099;69.9;NaN;;14.087;;0 / 18;16758;2021-10-27 17:39:58:802
4.971;11.015;-2.264;8.796;-3.998;-1.666;-4.358;-8.768;0.868;1.571;0.99;-0.519;3.0;-21.0;-25.9;26.9;149.5;16.4;-107.7;0.0;55.43;39.46899;-0.34099;69.9;NaN;;14.087;;0 / 18;16809;2021-10-27 17:39:58:853
-0.337;3.652;6.654;4.271;0.201;8.83;0.902;6.264;-4.821;-0.851;-0.728;0.411;3.0;-20.8;-26.5;26.8;146.1;27.1;-99.4;0.0;55.43;39.46899;-0.34099;69.9;NaN;;14.087;;0 / 18;16859;2021-10-27 17:39:58:903
-0.564;10.692;0.265;9.701;0.115;-1.422;3.647;-0.585;-5.207;-1.875;-0.765;-0.113;3.0;-19.8;-28.2;26.3;140.5;-0.7;-98.3;0.0;55.43;39.46899;-0.34099;69.9;NaN;;14.087;;0 / 18;16908;2021-10-27 17:39:58:952
0.11;9.136;-0.232;9.792;-0.187;-0.498;2.256;-1.782;-0.139;-1.94;-0.341;-0.898;3.0;-19.1;-29.0;25.6;139.6;1.1;-92.9;0.0;55.43;39.46899;-0.34099;69.9;NaN;;14.087;;0 / 18;16958;2021-10-27 17:39:59:002
0.742;7.848;2.156;9.519;-0.9;2.174;0.727;1.797;-3.338;-1.772;-0.203;-1.044;3.0;-17.9;-31.0;24.7;138.4;8.2;-78.9;0.0;55.43;39.46899;-0.34099;69.9;NaN;;14.087;;0 / 18;17008;2021-10-27 17:39:59:052
0.095;8.83;0.641;9.778;-0.177;0.713;1.155;0.579;-1.68;-0.579;-0.109;-0.484;3.0;-17.5;-31.6;23.6;141.5;3.2;-85.5;0.0;60.99;39.46899;-0.34099;69.9;NaN;;14.087;;0 / 18;17059;2021-10-27 17:39:59:103
0.536;8.667;0.631;9.701;-0.077;1.437;0.775;1.075;-1.453;-0.921;-0.367;-0.33;3.0;-16.0;-33.0;23.2;144.6;3.4;-86.3;0.0;60.99;39.46899;-0.34099;69.9;NaN;;14.087;;0 / 18;17109;2021-10-27 17:39:59:153
-0.095;9.119;0.667;9.773;0.129;0.814;1.136;0.606;-1.171;-0.756;-0.373;-0.274;3.0;-15.7;-33.6;23.2;143.2;-0.4;-80.5;0.0;60.99;39.46899;-0.34099;69.9;NaN;;14.087;;0 / 18;17159;2021-10-27 17:39:59:203
0.591;9.146;0.148;9.787;-0.584;0.115;0.266;0.604;-0.105;-0.485;-0.258;-0.291;3.0;-15.0;-34.8;22.1;147.4;3.6;-88.9;0.0;60.99;39.46899;-0.34099;69.9;NaN;;14.087;;0 / 18;17208;2021-10-27 17:39:59:252
0.031;9.88;0.45;9.802;-0.038;0.378;0.613;-0.069;-0.277;-0.354;-0.22;-0.254;3.0;-15.2;-35.1;21.4;147.6;2.4;-87.7;0.0;60.99;39.46899;-0.34099;69.9;NaN;;14.087;;0 / 18;17258;2021-10-27 17:39:59:302
0.241;10.721;1.802;9.697;0.0;1.48;-0.094;-1.075;-1.041;-0.142;-0.102;-0.162;3.0;-15.4;-35.1;20.8;147.5;3.6;-82.5;0.0;60.99;39.46899;-0.34099;69.9;NaN;;14.087;;0 / 18;17309;2021-10-27 17:39:59:353
-0.416;12.647;1.546;9.735;0.239;1.164;0.341;-1.578;-0.717;-0.148;-0.058;-0.131;11.0;-15.7;-34.8;20.8;148.0;2.2;-85.4;0.0;53.02;39.46899;-0.34099;69.9;NaN;;14.087;;0 / 18;17358;2021-10-27 17:39:59:402
-1.56;13.512;1.725;9.687;0.637;1.403;2.214;-4.166;-1.16;-0.148;-0.058;-0.131;11.0;-16.1;-34.8;21.8;144.3;-7.0;-82.7;0.0;53.02;39.46899;-0.34099;69.9;NaN;;14.087;;0 / 18;17408;2021-10-27 17:39:59:452
3.688;6.17;4.346;7.379;-4.056;5.028;-2.914;2.864;-3.469;-0.148;-0.058;-0.131;11.0;-17.0;-34.4;22.9;145.3;3.7;-79.3;0.0;53.02;39.46899;-0.34099;69.9;NaN;;14.087;;0 / 18;17459;2021-10-27 17:39:59:503
2.283;11.314;0.26;9.639;-1.796;-0.287;-2.314;2.276;-2.38;-0.821;-0.609;0.215;11.0;-18.1;-33.1;25.9;144.6;10.5;-91.7;0.0;53.02;39.46899;-0.34099;69.9;NaN;;14.087;;0 / 18;17509;2021-10-27 17:39:59:553
2.317;11.274;-2.893;9.347;-1.906;-2.274;-2.226;-4.374;3.399;-0.069;-0.874;0.698;11.0;-19.1;-31.1;28.3;147.2;11.2;-103.7;0.0;53.02;39.46899;-0.34099;69.9;NaN;;14.087;;0 / 18;17559;2021-10-27 17:39:59:603
1.383;8.473;1.338;9.5;-1.839;1.585;-0.458;0.797;0.41;0.205;-0.878;0.778;11.0;-21.1;-27.7;31.9;137.2;12.4;-91.8;0.0;53.02;39.46899;-0.34099;69.9;NaN;;14.087;;0 / 18;17609;2021-10-27 17:39:59:653
2.881;7.231;-1.816;8.878;-3.5;-2.255;-1.477;2.471;2.541;0.96;-0.186;0.442;11.0;-22.2;-25.6;33.5;131.0;14.6;-83.4;0.0;53.02;39.46899;-0.34099;69.9;NaN;;14.087;;0 / 18;17659;2021-10-27 17:39:59:703
2.64;6.821;-1.967;8.83;-3.424;-2.552;-1.171;2.608;2.236;0.926;-0.245;0.527;28.0;-24.2;-23.1;34.3;141.7;20.4;-106.1;0.0;51.41;39.46899;-0.34099;69.9;NaN;;14.087;;0 / 18;17709;2021-10-27 17:39:59:753
1.874;5.194;-3.358;7.939;-2.729;-5.066;0.332;4.398;3.245;1.202;-0.036;0.645;28.0;-25.6;-22.0;33.8;156.1;14.9;-123.5;0.0;51.41;39.46899;-0.34099;69.9;NaN;;14.087;;0 / 18;17759;2021-10-27 17:39:59:803
1.649;5.541;-4.014;7.705;-2.284;-5.626;0.398;4.224;2.761;1.85;0.402;0.475;28.0;-28.1;-20.8;33.4;158.4;15.9;-123.8;0.0;51.41;39.46899;-0.34099;69.9;NaN;;14.087;;0 / 18;17808;2021-10-27 17:39:59:852
2.355;7.571;-4.916;7.877;-2.471;-5.296;-0.01;1.579;2.421;2.002;1.036;-0.068;28.0;-29.3;-20.6;32.8;159.5;14.4;-123.5;0.0;51.41;39.46899;-0.34099;69.9;NaN;;14.087;;0 / 18;17859;2021-10-27 17:39:59:903
1.797;8.717;-5.486;8.112;-1.695;-5.248;0.241;1.381;3.229;2.148;1.45;-0.529;28.0;-30.2;-21.0;32.2;161.2;14.6;-123.9;0.0;51.41;39.46899;-0.34099;69.9;NaN;;14.087;;0 / 18;17909;2021-10-27 17:39:59:953
3.681;10.613;-4.346;8.504;-2.825;-3.984;-1.613;-1.871;0.952;1.252;1.046;-0.36;28.0;-30.8;-21.7;31.4;151.7;18.3;-110.7;0.0;51.41;39.46899;-0.34099;69.9;NaN;;14.087;;0 / 18;17958;2021-10-27 17:40:00:002
3.465;9.706;-6.654;7.8;-2.768;-5.258;-0.794;-0.673;3.13;1.038;0.995;-0.336;28.0;-31.7;-23.0;29.9;167.7;14.7;-124.5;0.0;55.92;39.46899;-0.34099;69.9;NaN;;14.087;;0 / 18;18009;2021-10-27 17:40:00:053
6.034;11.532;-4.203;8.322;-4.19;-3.06;-3.107;-2.095;0.265;1.038;0.995;-0.336;0.0;-32.3;-23.4;28.4;162.1;16.9;-117.4;0.0;55.92;39.46899;-0.34099;69.9;NaN;;14.087;;0 / 18;18058;2021-10-27 17:40:00:102
0.844;7.099;6.213;8.045;-1.274;5.464;1.315;2.456;-3.971;0.279;0.618;0.127;0.0;-32.6;-24.4;25.6;122.4;7.5;-55.8;0.0;55.92;39.46899;-0.34099;69.9;NaN;;14.087;;0 / 18;18109;2021-10-27 17:40:00:153
-1.22;8.882;0.098;9.476;0.934;-2.337;3.806;-0.224;-2.833;-1.18;0.198;-0.184;0.0;-31.9;-25.1;23.5;129.2;-7.3;-85.0;0.0;55.92;39.46899;-0.34099;69.9;NaN;;14.087;;0 / 18;18159;2021-10-27 17:40:00:203
0.737;8.909;2.166;9.649;-0.924;1.494;1.915;-0.745;-2.621;-1.519;0.311;-0.74;0.0;-29.9;-27.1;21.1;144.8;1.6;-95.4;0.0;55.92;39.46899;-0.34099;69.9;NaN;;14.087;;0 / 18;18209;2021-10-27 17:40:00:253
0.842;8.81;0.476;9.749;-1.044;-0.254;1.025;0.667;-2.347;-1.876;0.347;-0.985;0.0;-28.3;-28.6;19.6;139.3;2.5;-79.3;0.0;55.92;39.46899;-0.34099;69.9;NaN;;14.087;;0 / 18;18258;2021-10-27 17:40:00:302
-0.172;8.617;1.977;9.768;-0.622;0.637;0.455;0.451;-1.242;-0.706;0.635;-0.714;0.0;-26.1;-30.4;17.6;148.0;3.6;-86.3;0.0;55.92;39.46899;-0.34099;69.9;NaN;;14.087;;0 / 18;18308;2021-10-27 17:40:00:352
-0.545;8.626;-0.217;9.783;0.522;-0.445;1.851;1.183;-1.288;-1.117;0.132;-0.509;14.0;-24.8;-31.3;16.7;145.2;-4.0;-81.8;0.0;57.36;39.46899;-0.34099;69.9;NaN;;14.087;;0 / 18;18359;2021-10-27 17:40:00:403
-0.315;8.777;1.079;9.716;0.225;1.302;1.627;1.033;-0.696;-0.722;0.158;-0.483;14.0;-23.0;-32.3;15.7;154.0;-2.7;-92.4;0.0;57.36;39.46899;-0.34099;69.9;NaN;;14.087;;0 / 18;18409;2021-10-27 17:40:00:453
0.382;8.645;0.007;9.797;-0.431;-0.014;0.881;1.258;-0.318;-0.547;0.132;-0.49;14.0;-22.1;-32.7;15.4;148.3;-1.5;-80.9;0.0;57.36;39.46899;-0.34099;69.9;NaN;;14.087;;0 / 18;18458;2021-10-27 17:40:00:502
0.095;9.519;0.382;9.797;0.0;0.393;0.316;0.671;-0.135;-0.363;0.178;-0.441;14.0;-21.2;-33.1;14.5;155.8;0.0;-87.7;0.0;57.36;39.46899;-0.34099;69.9;NaN;;14.087;;0 / 18;18508;2021-10-27 17:40:00:552
0.753;11.281;1.093;9.735;-0.675;0.958;0.266;-1.064;-0.765;-0.242;0.114;-0.281;14.0;-20.4;-33.1;13.4;155.9;1.0;-84.4;0.0;57.36;39.46899;-0.34099;69.9;NaN;;14.087;;0 / 18;18559;2021-10-27 17:40:00:603
-0.476;10.582;0.878;9.768;0.359;0.795;0.796;-0.737;-0.795;-0.186;0.074;-0.171;14.0;-20.2;-32.7;12.4;155.1;0.7;-82.8;0.0;57.36;39.46899;-0.34099;69.9;NaN;;14.087;;0 / 18;18608;2021-10-27 17:40:00:652
0.083;13.112;-0.031;9.802;0.048;0.211;-0.016;-2.087;0.924;-0.133;0.113;-0.101;14.0;-20.0;-32.4;12.4;157.4;2.9;-83.7;0.0;51.41;39.46899;-0.34099;69.9;NaN;;14.087;;0 / 18;18658;2021-10-27 17:40:00:702
-1.122;12.432;2.376;9.582;0.737;1.954;1.807;-3.042;-1.181;-0.15;0.128;-0.119;61.0;-20.6;-32.1;13.1;151.0;-4.3;-78.5;0.0;51.41;39.46899;-0.34099;69.9;NaN;;14.087;;0 / 18;18709;2021-10-27 17:40:00:753
3.353;6.654;4.705;7.288;-4.032;5.181;-1.398;0.508;-3.979;-0.361;-0.075;-0.145;61.0;-20.6;-32.2;14.0;146.2;12.6;-60.4;0.0;51.41;39.46899;-0.34099;69.9;NaN;;14.087;;0 / 18;18758;2021-10-27 17:40:00:802
2.221;14.476;-1.129;9.682;-1.437;-0.651;-2.594;-1.942;0.023;-0.746;-0.903;0.301;61.0;-20.8;-31.3;16.7;153.6;14.1;-85.0;0.0;51.41;39.46899;-0.34099;69.9;NaN;;14.087;;0 / 18;18808;2021-10-27 17:40:00:852
2.025;8.739;-1.45;8.701;-2.461;-3.802;-2.132;-0.455;5.634;0.018;-1.051;0.809;61.0;-21.0;-30.3;18.8;156.8;12.2;-97.6;0.0;51.41;39.46899;-0.34099;69.9;NaN;;14.087;;0 / 18;18859;2021-10-27 17:40:00:903
0.981;7.393;2.386;9.29;-1.312;2.859;0.103;1.93;-1.733;0.164;-1.168;0.8;61.0;-21.1;-28.9;22.1;138.3;7.7;-72.9;0.0;51.41;39.46899;-0.34099;69.9;NaN;;14.087;;0 / 18;18909;2021-10-27 17:40:00:953
2.288;5.617;-3.348;8.059;-3.266;-4.539;-1.014;2.945;2.635;0.812;-0.421;0.455;61.0;-21.1;-28.0;23.6;163.8;19.4;-119.4;0.0;51.41;39.46899;-0.34099;69.9;NaN;;14.087;;0 / 18;18958;2021-10-27 17:40:01:002
2.621;5.974;-3.382;7.963;-3.5;-4.535;-0.355;4.033;3.164;1.082;-0.437;0.573;61.0;-21.1;-27.2;25.0;161.1;17.9;-116.9;0.0;50.88;39.46899;-0.34099;69.9;NaN;;14.087;;0 / 18;19008;2021-10-27 17:40:01:052
2.041;5.83;-4.059;7.752;-2.753;-5.344;-0.633;3.834;3.399;1.891;0.086;0.637;75.0;-21.5;-26.8;25.3;164.2;21.0;-121.6;0.0;50.88;39.46899;-0.34099;69.9;NaN;;14.087;;0 / 18;19059;2021-10-27 17:40:01:103
2.324;7.523;-3.612;8.495;-2.653;-4.123;-0.032;1.982;1.819;2.332;1.002;0.135;75.0;-21.8;-26.6;25.0;160.3;15.1;-117.1;0.0;50.88;39.46899;-0.34099;69.9;NaN;;14.087;;0 / 18;19109;2021-10-27 17:40:01:153
2.221;8.083;-4.758;8.198;-2.289;-4.87;0.106;1.165;2.264;1.687;0.763;-0.055;75.0;-21.8;-26.8;25.1;162.0;14.2;-119.3;0.0;50.88;39.46899;-0.34099;69.9;NaN;;14.087;;0 / 18;19158;2021-10-27 17:40:01:202
1.852;9.9;-5.44;8.428;-1.676;-4.726;0.27;0.037;2.671;1.237;0.775;-0.418;75.0;-21.7;-27.2;24.8;163.9;11.8;-122.0;0.0;50.88;39.46899;-0.34099;69.9;NaN;;14.087;;0 / 18;19209;2021-10-27 17:40:01:253
2.202;10.541;-6.034;8.447;-1.609;-4.717;0.799;-2.27;2.756;0.986;0.685;-0.499;75.0;-21.5;-27.4;24.5;158.7;6.9;-117.7;0.0;50.88;39.46899;-0.34099;69.9;NaN;;14.087;;0 / 18;19258;2021-10-27 17:40:01:302
6.388;14.12;-8.191;7.369;-3.309;-5.559;-2.286;-0.496;4.135;0.979;0.707;-0.471;75.0;-21.2;-28.0;24.1;170.0;19.7;-127.0;0.0;58.45;39.46899;-0.34099;69.9;NaN;;14.087;;0 / 18;19308;2021-10-27 17:40:01:352
1.414;7.37;2.647;8.471;-1.135;4.812;0.488;0.626;-6.311;0.979;0.707;-0.471;0.0;-21.6;-28.6;23.6;138.8;13.2;-78.0;0.0;58.45;39.46899;-0.34099;69.9;NaN;;14.087;;0 / 18;19359;2021-10-27 17:40:01:403
-0.768;5.677;2.733;8.538;1.178;4.678;2.821;4.268;-6.688;0.979;0.707;-0.471;0.0;-21.2;-29.3;23.2;133.2;0.0;-55.0;0.0;58.45;39.46899;-0.34099;69.9;NaN;;14.087;;0 / 18;19408;2021-10-27 17:40:01:452
0.461;11.458;-0.622;9.778;-0.249;-0.737;2.925;0.177;-2.562;-1.564;-1.084;0.177;0.0;-21.2;-30.4;22.9;135.1;-8.1;-75.4;0.0;58.45;39.46899;-0.34099;69.9;NaN;;14.087;;0 / 18;19459;2021-10-27 17:40:01:503
0.665;8.945;-0.143;9.783;-0.661;-0.144;1.185;-0.652;-2.147;-2.227;-0.875;-0.625;0.0;-20.9;-31.3;22.6;143.1;2.4;-87.5;0.0;58.45;39.46899;-0.34099;69.9;NaN;;14.087;;0 / 18;19508;2021-10-27 17:40:01:552
0.955;9.05;0.105;9.749;-1.025;0.345;0.696;1.775;-3.104;-1.091;-0.329;-0.567;0.0;-20.4;-33.0;21.8;147.0;3.9;-90.8;0.0;58.45;39.46899;-0.34099;69.9;NaN;;14.087;;0 / 18;19559;2021-10-27 17:40:01:603
-0.66;9.0;0.756;9.73;0.857;0.871;1.785;0.697;-1.875;-0.72;-0.22;-0.386;0.0;-20.0;-34.6;20.5;146.9;-5.0;-84.9;0.0;58.45;39.46899;-0.34099;69.9;NaN;;14.087;;0 / 18;19608;2021-10-27 17:40:01:652
0.141;8.897;-0.452;9.797;-0.091;-0.388;1.237;0.537;-1.099;-0.665;-0.166;-0.369;0.0;-19.4;-35.3;19.9;151.3;0.5;-92.3;0.0;59.67;39.46899;-0.34099;69.9;NaN;;14.087;;0 / 18;19659;2021-10-27 17:40:01:703
0.002;8.286;0.782;9.759;0.23;0.943;0.918;1.48;-1.057;-0.467;-0.003;-0.375;45.0;-18.8;-35.9;19.3;151.0;-1.1;-87.7;0.0;59.67;39.46899;-0.34099;69.9;NaN;;14.087;;0 / 18;19708;2021-10-27 17:40:01:752
0.169;8.88;-0.088;9.802;-0.364;0.0;0.148;1.138;-0.371;-0.383;0.072;-0.373;45.0;-18.5;-36.5;18.8;150.5;1.0;-85.1;0.0;59.67;39.46899;-0.34099;69.9;NaN;;14.087;;0 / 18;19759;2021-10-27 17:40:01:803
0.703;10.773;1.244;9.725;-0.651;1.092;-0.336;-0.935;-1.387;-0.289;0.023;-0.221;45.0;-18.8;-36.7;18.1;151.1;3.7;-80.3;0.0;59.67;39.46899;-0.34099;69.9;NaN;;14.087;;0 / 18;19808;2021-10-27 17:40:01:852
-0.256;11.403;1.754;9.682;0.23;1.556;0.608;-1.765;-1.868;-0.471;-0.237;-0.091;45.0;-19.0;-36.6;17.9;150.5;-0.1;-80.4;0.0;59.67;39.46899;-0.34099;69.9;NaN;;14.087;;0 / 18;19859;2021-10-27 17:40:01:903
-0.919;11.369;0.325;9.778;0.68;0.249;-0.07;-1.508;0.318;-0.366;-0.143;-0.057;45.0;-19.6;-36.6;17.6;154.9;2.5;-88.0;0.0;59.67;39.46899;-0.34099;69.9;NaN;;14.087;;0 / 18;19909;2021-10-27 17:40:01:953
-1.73;12.865;1.17;9.668;1.346;0.958;1.66;-3.553;-0.34;-0.314;-0.046;-0.094;45.0;-19.9;-36.5;17.8;151.4;-5.0;-88.1;0.0;52.21;39.46899;-0.34099;69.9;NaN;;14.087;;0 / 18;19958;2021-10-27 17:40:02:002
0.627;10.737;2.913;9.352;-0.848;2.835;-0.141;-1.268;-2.177;-0.314;-0.046;-0.094;45.0;-20.6;-35.9;18.8;147.8;-8.1;-81.0;0.0;52.21;39.46899;-0.34099;69.9;NaN;;14.087;;0 / 18;20008;2021-10-27 17:40:02:052
5.579;4.241;4.27;5.531;-6.594;4.702;-4.754;5.404;-4.699;-0.314;-0.046;-0.094;59.0;-21.5;-34.4;21.5;132.1;42.2;-49.6;0.0;52.21;39.46899;-0.34099;69.9;NaN;;14.087;;0 / 18;20059;2021-10-27 17:40:02:103
4.188;14.898;-2.549;9.313;-2.629;-1.599;-3.715;-5.177;3.734;-0.314;-0.046;-0.094;59.0;-22.3;-32.8;23.6;153.7;14.5;-101.7;0.0;52.21;39.46899;-0.34099;69.9;NaN;;14.087;;0 / 18;20109;2021-10-27 17:40:02:153
1.206;8.401;0.361;9.357;-1.216;2.677;0.106;1.426;0.309;0.107;-1.353;1.138;59.0;-23.2;-30.3;26.6;151.7;10.2;-104.9;0.0;52.21;39.46899;-0.34099;69.9;NaN;;14.087;;0 / 18;20158;2021-10-27 17:40:02:202
1.507;7.221;-0.107;9.591;-2.006;0.345;0.183;2.528;0.138;0.682;-0.483;0.648;59.0;-24.1;-28.0;28.6;137.1;11.8;-87.9;0.0;52.21;39.46899;-0.34099;69.9;NaN;;14.087;;0 / 18;20209;2021-10-27 17:40:02:253
3.056;6.211;-3.904;7.757;-3.448;-4.913;-0.879;2.837;4.315;1.216;0.152;0.302;59.0;-24.8;-27.1;29.3;163.7;20.6;-122.3;0.0;54.54;39.46899;-0.34099;69.9;NaN;;14.087;;0 / 18;20259;2021-10-27 17:40:02:303
3.166;5.751;-3.726;7.427;-4.19;-4.841;-1.415;3.82;3.612;1.157;-0.128;0.607;59.0;-25.1;-26.5;29.8;162.9;26.2;-122.0;0.0;54.54;39.46899;-0.34099;69.9;NaN;;14.087;;0 / 18;20309;2021-10-27 17:40:02:353
1.536;6.266;-3.695;8.246;-2.064;-4.899;0.449;3.635;2.457;2.27;0.745;0.381;59.0;-25.5;-25.7;30.1;159.3;19.5;-119.4;0.0;54.54;39.46899;-0.34099;69.9;NaN;;14.087;;0 / 18;20359;2021-10-27 17:40:02:403
1.737;7.384;-4.531;8.255;-1.978;-4.913;0.66;2.328;2.124;2.01;0.776;0.209;21.0;-25.0;-25.7;30.2;158.4;11.6;-120.8;0.0;54.54;39.46899;-0.34099;69.9;NaN;;14.087;;0 / 18;20409;2021-10-27 17:40:02:453
2.139;7.329;-5.165;7.872;-2.14;-5.444;0.269;1.738;2.46;1.751;0.892;-0.173;21.0;-25.0;-26.2;30.2;163.2;13.5;-124.9;0.0;54.54;39.46899;-0.34099;69.9;NaN;;14.087;;0 / 18;20458;2021-10-27 17:40:02:502
2.293;10.929;-5.06;8.715;-1.748;-4.142;0.261;-1.127;2.132;1.385;0.955;-0.649;21.0;-24.5;-26.8;29.8;155.8;10.4;-117.9;0.0;54.54;39.46899;-0.34099;69.9;NaN;;14.087;;0 / 18;20509;2021-10-27 17:40:02:553
2.549;8.387;-6.874;7.389;-2.284;-6.029;-0.233;0.106;2.858;0.948;0.652;-0.438;21.0;-23.8;-27.7;28.7;155.3;12.7;-115.9;0.0;54.54;39.46899;-0.34099;69.9;NaN;;14.087;;0 / 18;20559;2021-10-27 17:40:02:603
4.892;15.12;-5.677;8.796;-3.055;-3.079;-3.253;-7.021;1.545;0.948;0.652;-0.438;21.0;-23.0;-28.7;28.1;157.3;14.5;-115.8;0.0;56.06;39.46899;-0.34099;69.9;NaN;;14.087;;0 / 18;20609;2021-10-27 17:40:02:653
2.19;6.709;-2.577;9.141;-3.309;-1.279;-0.133;1.138;-1.171;0.948;0.652;-0.438;21.0;-22.8;-28.9;27.7;152.7;15.3;-109.5;0.0;56.06;39.46899;-0.34099;69.9;NaN;;14.087;;0 / 18;20659;2021-10-27 17:40:02:703
-0.619;6.12;6.73;7.906;0.862;5.741;2.396;3.729;-11.424;-1.156;-0.954;0.593;0.0;-21.4;-30.4;27.2;132.7;1.3;-28.3;0.0;56.06;39.46899;-0.34099;69.9;NaN;;14.087;;0 / 18;20708;2021-10-27 17:40:02:752
-0.193;10.922;-4.349;9.141;0.101;-3.543;2.938;-1.035;-1.738;-1.808;-0.791;-0.202;0.0;-20.7;-31.3;26.6;133.5;-5.7;-77.1;0.0;56.06;39.46899;-0.34099;69.9;NaN;;14.087;;0 / 18;20758;2021-10-27 17:40:02:802
0.828;8.497;1.809;9.491;-0.795;2.342;1.113;0.381;-3.77;-2.234;-0.591;-0.857;0.0;-19.0;-33.1;25.3;141.3;-0.2;-91.2;0.0;56.06;39.46899;-0.34099;69.9;NaN;;14.087;;0 / 18;20809;2021-10-27 17:40:02:853
0.938;9.375;-0.114;9.754;-1.025;0.014;1.093;1.193;-3.077;-1.101;-0.325;-0.669;0.0;-18.3;-34.5;24.1;142.4;3.3;-80.2;0.0;56.06;39.46899;-0.34099;69.9;NaN;;14.087;;0 / 18;20858;2021-10-27 17:40:02:902
-0.392;8.095;0.921;9.768;0.359;0.771;1.974;1.042;-3.005;-0.769;-0.285;-0.484;0.0;-17.6;-35.8;22.9;142.6;-3.3;-78.5;0.0;58.86;39.46899;-0.34099;69.9;NaN;;14.087;;0 / 18;20909;2021-10-27 17:40:02:953
-0.411;8.562;0.816;9.74;0.273;1.111;1.215;1.162;-0.907;-0.882;-0.383;-0.363;0.0;-17.0;-36.4;22.9;145.6;-2.1;-85.5;0.0;58.86;39.46899;-0.34099;69.9;NaN;;14.087;;0 / 18;20958;2021-10-27 17:40:03:002
-0.428;8.629;0.811;9.759;0.417;0.862;1.146;0.841;-1.297;-0.642;-0.256;-0.344;0.0;-16.1;-37.3;22.4;146.1;-1.6;-83.5;0.0;58.86;39.46899;-0.34099;69.9;NaN;;14.087;;0 / 18;21008;2021-10-27 17:40:03:052
0.059;9.426;0.093;9.802;0.0;0.254;0.537;0.597;0.43;-0.358;-0.052;-0.385;30.0;-15.8;-37.9;21.8;150.7;0.6;-92.0;0.0;58.86;39.46899;-0.34099;69.9;NaN;;14.087;;0 / 18;21059;2021-10-27 17:40:03:103
-0.251;10.608;0.457;9.802;0.158;0.33;0.526;-0.161;-1.0;-0.243;-0.025;-0.333;30.0;-16.1;-38.4;20.6;148.9;-0.2;-82.7;0.0;58.86;39.46899;-0.34099;69.9;NaN;;14.087;;0 / 18;21108;2021-10-27 17:40:03:152
1.424;10.649;2.173;9.591;-1.403;1.48;-1.152;-0.951;-1.892;-0.244;-0.21;-0.084;30.0;-16.6;-38.5;19.9;151.5;5.0;-83.3;0.0;58.86;39.46899;-0.34099;69.9;NaN;;14.087;;0 / 18;21159;2021-10-27 17:40:03:203
-0.263;11.542;-0.306;9.792;-0.33;-0.455;-1.548;-1.227;0.946;-0.173;-0.301;0.117;30.0;-17.6;-38.3;19.1;154.8;1.9;-92.7;0.0;51.62;39.46899;-0.34099;69.9;NaN;;14.087;;0 / 18;21209;2021-10-27 17:40:03:253
-2.51;12.209;2.877;9.055;1.293;3.539;2.778;-2.213;-2.58;-0.138;-0.243;0.129;30.0;-17.9;-38.0;19.0;148.1;-9.5;-79.8;0.0;51.62;39.46899;-0.34099;69.9;NaN;;14.087;;0 / 18;21259;2021-10-27 17:40:03:303
3.059;6.96;4.653;8.93;-1.767;3.644;-1.374;1.235;-2.77;-0.138;-0.243;0.129;30.0;-18.8;-37.2;20.3;145.2;0.6;-67.3;0.0;51.62;39.46899;-0.34099;69.9;NaN;;14.087;;0 / 18;21308;2021-10-27 17:40:03:352
3.595;13.325;-2.264;9.38;-2.552;-1.288;-3.103;-3.004;1.952;-0.138;-0.243;0.129;41.0;-20.0;-35.5;23.2;141.0;22.4;-60.5;0.0;51.62;39.46899;-0.34099;69.9;NaN;;14.087;;0 / 18;21359;2021-10-27 17:40:03:403
3.293;9.306;-1.938;8.954;-3.218;-2.375;-2.875;-0.971;5.276;-0.138;-0.243;0.129;41.0;-22.1;-32.5;27.2;152.6;19.2;-104.9;0.0;51.62;39.46899;-0.34099;69.9;NaN;;14.087;;0 / 18;21408;2021-10-27 17:40:03:452
0.974;9.249;2.659;9.428;-1.02;2.495;0.001;0.457;-1.773;0.16;-0.817;0.879;41.0;-23.3;-30.4;29.2;132.6;8.2;-73.1;0.0;51.62;39.46899;-0.34099;69.9;NaN;;14.087;;0 / 18;21459;2021-10-27 17:40:03:503
2.039;6.587;-2.056;8.882;-2.792;-3.074;-0.213;2.4;1.66;0.506;-0.354;0.619;41.0;-25.4;-27.6;31.3;133.4;5.3;-88.3;0.0;51.62;39.46899;-0.34099;69.9;NaN;;14.087;;0 / 18;21509;2021-10-27 17:40:03:553
2.862;6.426;-3.528;7.987;-3.572;-4.434;-1.245;3.204;3.837;0.628;-0.059;0.45;41.0;-27.2;-25.8;31.9;154.8;21.6;-114.7;0.0;54.12;39.46899;-0.34099;69.9;NaN;;14.087;;0 / 18;21559;2021-10-27 17:40:03:603
1.591;6.103;-3.444;8.37;-2.227;-4.602;-0.15;3.566;4.008;1.373;0.37;0.404;41.0;-29.7;-23.7;31.9;157.5;13.1;-118.8;0.0;54.12;39.46899;-0.34099;69.9;NaN;;14.087;;0 / 18;21608;2021-10-27 17:40:03:652
1.603;6.994;-3.233;8.595;-2.978;-3.668;0.509;2.559;2.125;2.248;1.202;0.109;41.0;-31.3;-22.6;31.6;150.1;12.1;-112.3;0.0;54.12;39.46899;-0.34099;69.9;NaN;;14.087;;0 / 18;21658;2021-10-27 17:40:03:702
1.584;6.331;-5.11;7.441;-1.796;-6.134;-0.817;2.758;2.2;1.945;1.214;-0.01;11.0;-33.0;-22.7;31.0;164.7;20.7;-120.6;0.0;54.12;39.46899;-0.34099;69.9;NaN;;14.087;;0 / 18;21708;2021-10-27 17:40:03:752
2.771;9.114;-5.108;8.15;-3.203;-4.415;1.09;0.028;2.88;1.675;1.385;-0.575;11.0;-34.1;-23.0;30.8;170.1;11.1;-125.6;0.0;54.12;39.46899;-0.34099;69.9;NaN;;14.087;;0 / 18;21759;2021-10-27 17:40:03:803
2.314;9.339;-5.383;8.313;-2.619;-4.492;0.938;-0.922;2.085;1.352;1.203;-0.485;11.0;-35.5;-24.4;29.5;166.6;15.5;-118.4;0.0;54.12;39.46899;-0.34099;69.9;NaN;;14.087;;0 / 18;21809;2021-10-27 17:40:03:853
2.793;12.183;-5.184;8.715;-1.925;-4.065;-0.284;-1.015;2.552;1.209;1.213;-0.701;11.0;-35.8;-25.2;28.6;171.8;12.5;-122.7;0.0;58.32;39.46899;-0.34099;69.9;NaN;;14.087;;0 / 18;21858;2021-10-27 17:40:03:902
8.533;13.636;-3.145;7.877;-5.277;-2.514;-8.723;-10.338;-0.795;0.819;0.971;-0.511;11.0;-36.0;-26.1;27.5;157.7;13.1;-108.3;0.0;58.32;39.46899;-0.34099;69.9;NaN;;14.087;;0 / 18;21908;2021-10-27 17:40:03:952
-2.056;3.69;1.668;9.438;1.987;1.786;3.068;4.915;-4.44;0.819;0.971;-0.511;11.0;-35.3;-27.0;25.9;248.7;-32.5;158.8;0.0;58.32;39.46899;-0.34099;69.9;NaN;;14.087;;0 / 18;21959;2021-10-27 17:40:04:003
-1.608;10.307;2.676;9.639;1.245;1.298;3.787;-0.799;-11.401;-0.564;0.167;0.247;11.0;-34.6;-28.0;25.3;122.5;-11.7;-79.3;0.0;58.32;39.46899;-0.34099;69.9;NaN;;14.087;;0 / 18;22009;2021-10-27 17:40:04:053
0.344;10.618;0.277;9.754;-0.757;0.685;2.212;-1.295;-2.258;-1.683;-0.165;-0.352;0.0;-32.7;-29.8;23.8;140.6;-9.2;-97.3;0.0;58.32;39.46899;-0.34099;69.9;NaN;;14.087;;0 / 18;22059;2021-10-27 17:40:04:103
1.656;7.391;0.703;9.5;-2.131;1.178;0.052;3.076;-2.974;-2.026;-0.049;-1.241;0.0;-30.1;-31.6;21.5;139.7;11.6;-73.9;0.0;58.32;39.46899;-0.34099;69.9;NaN;;14.087;;0 / 18;22109;2021-10-27 17:40:04:153
0.737;9.485;-1.445;9.692;-0.699;-1.341;0.446;0.484;0.388;-0.356;0.197;-0.347;0.0;-28.7;-32.7;19.9;154.4;10.8;-95.6;0.0;58.32;39.46899;-0.34099;69.9;NaN;;14.087;;0 / 18;22158;2021-10-27 17:40:04:202
-1.469;8.114;3.971;8.734;1.441;4.219;1.149;1.336;-0.306;-0.375;0.023;-0.117;0.0;-26.3;-34.3;17.9;138.7;-8.5;-64.2;0.0;65.54;39.46899;-0.34099;69.9;NaN;;14.087;;0 / 18;22208;2021-10-27 17:40:04:252
0.241;9.648;0.797;9.749;-0.57;0.886;1.08;-0.089;-1.072;-0.609;-0.062;-0.298;0.0;-25.0;-35.0;17.2;150.4;0.1;-83.0;0.0;65.54;39.46899;-0.34099;69.9;NaN;;14.087;;0 / 18;22259;2021-10-27 17:40:04:303
0.15;7.721;-0.076;9.797;-0.388;0.072;0.703;2.126;-0.75;-0.643;-0.089;-0.392;0.0;-22.8;-35.8;16.7;149.4;1.1;-78.3;0.0;65.54;39.46899;-0.34099;69.9;NaN;;14.087;;0 / 18;22309;2021-10-27 17:40:04:353
0.753;11.513;-0.349;9.701;-1.116;0.915;0.304;1.123;-0.73;-0.688;-0.243;-0.341;0.0;-22.0;-36.1;16.4;158.2;6.3;-94.3;0.0;65.54;39.46899;-0.34099;69.9;NaN;;14.087;;0 / 18;22359;2021-10-27 17:40:04:403
1.017;9.888;-0.344;9.768;-0.824;0.297;2.084;1.624;-4.341;-0.495;-0.225;-0.3;15.0;-21.0;-36.7;15.8;156.7;4.8;-88.3;0.0;65.54;39.46899;-0.34099;69.9;NaN;;14.087;;0 / 18;22409;2021-10-27 17:40:04:453
-1.168;11.544;0.744;9.773;0.766;-0.278;1.506;-1.455;-1.194;-0.38;-0.212;-0.303;15.0;-20.6;-37.2;15.2;155.1;1.2;-83.3;0.0;65.54;39.46899;-0.34099;69.9;NaN;;14.087;;0 / 18;22458;2021-10-27 17:40:04:502
1.979;12.123;0.919;9.673;-1.168;1.101;1.853;-1.175;-1.919;-0.414;-0.284;-0.26;15.0;-19.5;-37.2;15.1;151.0;-7.4;-76.7;0.0;60.21;39.46899;-0.34099;69.9;NaN;;14.087;;0 / 18;22508;2021-10-27 17:40:04:552
0.83;17.765;1.79;9.735;-1.173;0.134;-0.768;-8.344;-1.11;-0.414;-0.284;-0.26;15.0;-19.1;-37.1;15.8;188.5;-19.5;-137.8;0.0;60.21;39.46899;-0.34099;69.9;NaN;;14.087;;0 / 18;22559;2021-10-27 17:40:04:603
-0.56;13.88;5.232;8.983;0.134;3.936;-0.997;-6.235;-4.368;-0.414;-0.284;-0.26;15.0;-18.0;-37.0;17.5;147.3;-0.8;-66.3;0.0;60.21;39.46899;-0.34099;69.9;NaN;;14.087;;0 / 18;22609;2021-10-27 17:40:04:653
4.193;10.855;1.735;9.021;-3.381;1.834;-4.877;-1.38;-2.526;-0.274;-0.691;0.124;15.0;-18.2;-37.0;19.0;147.7;19.4;-69.2;0.0;60.21;39.46899;-0.34099;69.9;NaN;;14.087;;0 / 18;22658;2021-10-27 17:40:04:702
2.3;16.985;-2.589;9.692;-1.13;-0.996;-3.963;-5.733;3.558;-0.496;-1.624;0.58;17.0;-18.2;-36.5;21.1;151.8;22.6;-88.5;0.0;60.21;39.46899;-0.34099;69.9;NaN;;14.087;;0 / 18;22709;2021-10-27 17:40:04:753
0.785;9.914;-1.072;9.371;-0.244;-2.878;-1.164;-0.753;2.014;-0.232;-1.659;0.6;17.0;-17.0;-36.2;24.7;149.4;7.8;-91.3;0.0;60.21;39.46899;-0.34099;69.9;NaN;;14.087;;0 / 18;22758;2021-10-27 17:40:04:802
1.299;11.724;-6.331;8.135;-0.077;-5.483;-0.29;-2.159;5.962;0.697;-0.804;0.336;17.0;-14.3;-36.6;27.1;135.5;-26.5;-74.9;0.0;60.21;39.46899;-0.34099;69.9;NaN;;14.087;;0 / 18;22809;2021-10-27 17:40:04:853
-1.141;9.639;-6.142;9.586;1.231;-1.652;3.263;0.213;4.964;1.387;0.805;-0.661;17.0;-11.5;-38.2;26.0;143.0;-18.5;-101.4;0.0;62.84;39.46899;-0.34099;69.9;NaN;;14.087;;0 / 18;22858;2021-10-27 17:40:04:902
-0.074;6.101;4.145;8.179;-0.254;5.406;1.278;3.783;-4.521;1.37;0.687;-0.661;17.0;-7.3;-40.6;21.4;148.8;15.5;-80.8;0.0;62.84;39.46899;-0.34099;69.9;NaN;;14.087;;0 / 18;22909;2021-10-27 17:40:04:953
0.275;4.253;2.838;8.155;0.22;5.444;-0.413;5.093;-4.222;-0.036;-1.199;-0.198;17.0;-5.0;-42.0;17.8;153.1;6.3;-61.4;0.0;62.84;39.46899;-0.34099;69.9;NaN;;14.087;;0 / 18;22958;2021-10-27 17:40:05:002
0.481;1.716;3.813;3.323;-0.704;9.199;-0.509;6.996;-4.537;-2.613;-2.232;-0.21;17.0;-4.3;-42.7;11.8;169.5;4.1;-19.9;0.0;62.84;39.46899;-0.34099;69.9;NaN;;14.087;;0 / 18;23009;2021-10-27 17:40:05:053
-0.093;1.603;5.28;2.911;0.369;9.357;0.502;8.848;-2.729;-4.113;-1.564;-0.761;301.0;-4.4;-42.5;8.0;172.7;-0.9;-10.3;0.0;62.84;39.46899;-0.34099;69.9;NaN;;14.087;;0 / 18;23058;2021-10-27 17:40:05:102
1.266;3.947;7.415;4.745;-2.701;8.145;1.811;5.827;-3.837;-4.152;-0.996;-0.871;301.0;-4.7;-41.6;1.7;171.6;-9.8;-23.2;0.0;62.84;39.46899;-0.34099;69.9;NaN;;14.087;;0 / 18;23109;2021-10-27 17:40:05:153
-0.373;2.58;3.126;5.559;1.015;8.016;0.34;5.826;1.208;-3.538;-0.754;-0.756;301.0;-4.2;-41.3;-1.7;174.9;9.0;-25.1;0.0;63.37;39.46899;-0.34099;69.9;NaN;;14.087;;0 / 18;23159;2021-10-27 17:40:05:203
3.303;7.501;9.945;4.956;1.729;8.284;1.832;1.916;-2.594;-3.538;-0.754;-0.756;301.0;-3.0;-41.2;-2.9;177.2;14.0;-17.1;0.0;63.37;39.46899;-0.34099;69.9;NaN;;14.087;;0 / 18;23209;2021-10-27 17:40:05:253
1.527;6.829;4.447;8.322;-1.891;4.836;-0.425;0.573;-0.972;-0.999;-0.787;-0.339;301.0;-2.3;-41.5;-1.7;180.4;7.5;-50.6;0.0;63.37;39.46899;-0.34099;69.9;NaN;;14.087;;0 / 18;23258;2021-10-27 17:40:05:302
-0.478;5.783;10.297;4.42;0.57;8.734;0.223;0.841;-2.433;-0.999;-0.787;-0.339;301.0;-2.4;-41.8;-0.2;177.8;0.8;-37.2;0.0;63.37;39.46899;-0.34099;69.9;NaN;;14.087;;0 / 18;23309;2021-10-27 17:40:05:353
0.629;5.261;9.572;4.731;-0.527;8.576;-0.567;1.274;-2.22;-0.686;-0.276;-0.363;281.0;-2.7;-42.1;-0.5;176.3;-1.1;-26.4;0.0;63.37;39.46899;-0.34099;69.9;NaN;;14.087;;0 / 18;23359;2021-10-27 17:40:05:403
0.533;5.036;8.569;4.726;-0.666;8.566;-0.343;1.424;-0.664;-0.58;-0.258;-0.315;281.0;-3.1;-41.6;-1.9;177.7;3.9;-28.9;0.0;63.37;39.46899;-0.34099;69.9;NaN;;14.087;;0 / 18;23408;2021-10-27 17:40:05:452
1.369;4.732;9.203;4.386;-1.211;8.686;-1.29;1.149;-1.326;-0.833;-0.311;-0.232;281.0;-2.8;-41.4;-2.8;178.2;6.0;-27.0;0.0;53.85;39.46899;-0.34099;69.9;NaN;;14.087;;0 / 18;23459;2021-10-27 17:40:05:503
2.07;5.79;1.484;6.076;-1.073;7.623;-0.473;-0.081;0.022;-0.768;-0.381;-0.204;281.0;-3.3;-41.2;-2.9;178.9;4.0;-34.4;0.0;53.85;39.46899;-0.34099;69.9;NaN;;14.087;;0 / 18;23509;2021-10-27 17:40:05:553
1.306;5.191;7.968;5.291;-1.24;8.164;-0.955;0.362;0.09;-0.238;-0.609;-0.117;281.0;-3.3;-41.2;-2.5;178.0;8.3;-33.3;0.0;53.85;39.46899;-0.34099;69.9;NaN;;14.087;;0 / 18;23559;2021-10-27 17:40:05:603
1.251;4.2;6.85;5.176;-1.379;8.217;-0.69;0.845;0.97;-0.025;-0.572;-0.075;281.0;-4.1;-42.0;-1.9;177.0;9.6;-33.4;0.0;53.85;39.46899;-0.34099;69.9;NaN;;14.087;;0 / 18;23608;2021-10-27 17:40:05:652