sep=;
ACCELEROMETER X (m/s²);ACCELEROMETER Y (m/s²);ACCELEROMETER Z (m/s²);GRAVITY X (m/s²);GRAVITY Y (m/s²);GRAVITY Z (m/s²);LINEAR ACCELERATION X (m/s²);LINEAR ACCELERATION Y (m/s²);LINEAR ACCELERATION Z (m/s²);GYROSCOPE X (rad/s);GYROSCOPE Y (rad/s);GYROSCOPE Z (rad/s);LIGHT (lux);MAGNETIC FIELD X (μT);MAGNETIC FIELD Y (μT);MAGNETIC FIELD Z (μT);ORIENTATION Z (azimuth °);ORIENTATION X (pitch °);ORIENTATION Y (roll °);PROXIMITY (m);SOUND LEVEL (dB);LOCATION Latitude : ;LOCATION Longitude : ;LOCATION Altitude ( m);LOCATION Altitude-google ( m);LOCATION Speed ( Kmh);LOCATION Accuracy ( m);LOCATION ORIENTATION (°);Satellites in range;Time since start in ms ;YYYY-MO-DD HH-MI-SS_SSS
-3.738;9.024;-23.974;1.844;1.714;-9.476;0.659;-1.505;21.045;0.222;-2.122;0.332;383.0;-7.4;-39.9;14.0;166.5;0.9;-115.3;5.0;47.31;39.46901;-0.34097;69.9;NaN;;15.519;;0 / 28;37;2021-10-27 16:51:24:622
-2.02;6.733;-6.098;6.46;0.594;-7.355;-0.175;0.523;9.965;0.222;-2.122;0.332;383.0;-8.0;-38.5;18.5;153.2;-0.1;-88.5;5.0;47.31;39.46901;-0.34097;69.9;NaN;;15.519;;0 / 28;87;2021-10-27 16:51:24:672
-0.272;9.215;-2.451;9.462;-0.359;-2.547;-2.569;-1.554;6.508;0.222;-2.122;0.332;383.0;-9.2;-36.3;23.6;147.3;-18.7;-57.4;5.0;47.31;39.46901;-0.34097;69.9;NaN;;15.519;;0 / 28;137;2021-10-27 16:51:24:722
1.823;8.248;-0.641;8.514;-4.635;-1.489;-6.164;4.174;2.653;2.782;3.27;0.44;309.0;-10.3;-35.2;25.2;149.5;2.1;-105.1;0.0;47.31;39.46901;-0.34097;69.9;NaN;;15.519;;0 / 28;187;2021-10-27 16:51:24:772
-2.97;15.407;-8.121;7.456;2.399;-5.904;-11.365;12.66;-5.796;0.56;-2.423;1.101;309.0;-12.8;-34.8;23.9;158.9;-14.2;-128.4;0.0;47.31;39.46901;-0.34097;69.9;NaN;;15.519;;0 / 28;236;2021-10-27 16:51:24:821
-2.513;17.002;7.341;9.304;1.053;2.921;2.628;-5.533;-4.006;0.441;-1.206;0.554;309.0;-14.2;-34.9;22.9;141.7;-11.4;-74.5;0.0;47.31;39.46901;-0.34097;69.9;NaN;;15.519;;0 / 28;287;2021-10-27 16:51:24:872
3.267;10.838;0.299;9.366;-2.796;-0.809;-4.143;-2.641;4.621;0.265;-0.719;0.452;309.0;-16.0;-34.3;21.6;147.9;1.3;-89.4;0.0;64.98;39.46901;-0.34097;69.9;NaN;;15.519;;0 / 28;337;2021-10-27 16:51:24:922
1.924;8.641;-0.928;9.653;-1.346;-1.097;-3.307;-0.014;2.609;0.716;0.399;0.192;309.0;-16.7;-33.8;21.4;148.3;18.3;-83.6;0.0;64.98;39.46901;-0.34097;69.9;NaN;;15.519;;0 / 28;387;2021-10-27 16:51:24:972
-0.292;10.405;-0.272;9.764;0.661;0.622;-1.475;2.755;-1.917;0.608;-0.297;0.887;309.0;-17.5;-33.4;21.5;144.1;-3.9;-86.4;0.0;64.98;39.46901;-0.34097;69.9;NaN;;15.519;;0 / 28;437;2021-10-27 16:51:25:022
0.169;9.651;0.323;9.802;-0.081;0.345;-0.045;0.47;0.578;0.471;0.017;0.656;30.0;-17.6;-33.7;21.2;147.2;0.3;-86.8;0.0;64.98;39.46901;-0.34097;69.9;NaN;;15.519;;0 / 28;487;2021-10-27 16:51:25:072
-0.315;8.703;0.167;9.783;0.488;0.431;0.15;0.882;0.862;0.213;0.625;-0.011;30.0;-17.5;-34.3;21.2;147.2;-1.1;-87.6;0.0;64.98;39.46901;-0.34097;69.9;NaN;;15.519;;0 / 28;537;2021-10-27 16:51:25:122
0.689;9.763;0.014;9.778;-0.766;-0.067;-0.383;0.059;0.877;0.303;0.647;-0.032;30.0;-17.2;-34.7;20.8;148.1;-0.4;-89.8;0.0;64.98;39.46901;-0.34097;69.9;NaN;;15.519;;0 / 28;586;2021-10-27 16:51:25:171
0.433;9.586;0.804;9.764;-0.431;0.833;-0.322;0.33;-0.093;0.237;0.47;0.011;30.0;-17.0;-35.2;20.2;150.2;4.9;-87.5;0.0;66.38;39.46901;-0.34097;69.9;NaN;;15.519;;0 / 28;637;2021-10-27 16:51:25:222
-0.586;9.694;1.199;9.744;0.455;1.01;0.108;-0.141;-0.498;0.189;0.344;0.06;30.0;-16.6;-35.1;19.9;148.1;-0.4;-83.7;0.0;66.38;39.46901;-0.34097;69.9;NaN;;15.519;;0 / 28;686;2021-10-27 16:51:25:271
-1.879;10.742;1.634;9.591;1.293;1.585;1.473;-0.916;-1.193;0.101;0.288;0.033;30.0;-16.3;-35.5;19.4;148.3;-5.6;-83.6;0.0;66.38;39.46901;-0.34097;69.9;NaN;;15.519;;0 / 28;736;2021-10-27 16:51:25:321
-0.339;11.384;1.271;9.768;0.412;0.757;0.448;-1.521;-0.47;-0.208;0.245;-0.21;30.0;-16.9;-34.9;19.7;146.8;-6.4;-84.0;0.0;66.38;39.46901;-0.34097;69.9;NaN;;15.519;;0 / 28;787;2021-10-27 16:51:25:372
-0.842;11.575;2.077;9.591;0.656;1.93;0.201;-1.145;0.226;-0.208;0.245;-0.21;135.0;-17.6;-34.6;20.0;147.5;-3.1;-84.1;0.0;66.38;39.46901;-0.34097;69.9;NaN;;15.519;;0 / 28;837;2021-10-27 16:51:25:422
-0.488;11.582;3.296;9.361;0.445;2.887;0.174;-1.811;-2.061;-0.262;0.091;-0.16;135.0;-17.9;-34.0;21.0;144.8;-1.7;-80.6;0.0;66.38;39.46901;-0.34097;69.9;NaN;;15.519;;0 / 28;887;2021-10-27 16:51:25:472
3.219;9.033;2.013;8.978;-3.208;2.298;-3.34;0.979;-1.218;-0.266;-0.121;0.025;135.0;-18.4;-32.9;22.3;146.1;11.2;-84.0;0.0;66.38;39.46901;-0.34097;69.9;NaN;;15.519;;0 / 28;937;2021-10-27 16:51:25:522
3.607;9.332;0.16;9.266;-3.184;-0.46;-4.05;1.418;-0.764;-0.614;-0.909;0.588;135.0;-18.7;-31.8;23.6;137.7;20.0;-61.1;0.0;63.17;39.46901;-0.34097;69.9;NaN;;15.519;;0 / 28;987;2021-10-27 16:51:25:572
1.06;10.74;-0.385;9.759;-0.886;-0.407;-1.255;-2.1;2.708;0.063;-0.887;0.814;135.0;-20.0;-29.6;26.0;141.6;5.2;-92.4;0.0;63.17;39.46901;-0.34097;69.9;NaN;;15.519;;0 / 28;1037;2021-10-27 16:51:25:622
1.615;10.055;0.55;9.634;-1.824;-0.081;-0.71;-0.662;-0.189;0.151;-0.73;0.72;135.0;-20.6;-28.2;27.7;134.2;9.1;-80.7;0.0;63.17;39.46901;-0.34097;69.9;NaN;;15.519;;0 / 28;1087;2021-10-27 16:51:25:672
1.876;8.554;-2.738;9.237;-1.551;-2.907;-0.477;1.135;3.573;0.748;-0.186;0.442;135.0;-21.8;-26.2;29.7;140.8;10.2;-99.1;0.0;63.17;39.46901;-0.34097;69.9;NaN;;15.519;;0 / 28;1137;2021-10-27 16:51:25:722
0.964;7.286;-1.79;9.428;-1.384;-2.322;0.584;1.683;2.234;0.887;0.204;0.127;131.0;-22.3;-25.3;30.2;141.2;5.6;-105.4;0.0;63.17;39.46901;-0.34097;69.9;NaN;;15.519;;0 / 28;1187;2021-10-27 16:51:25:772
1.247;5.924;-3.008;8.748;-0.761;-4.362;0.408;3.973;2.791;1.502;0.551;0.074;131.0;-23.0;-23.8;30.6;148.0;12.3;-113.8;0.0;63.17;39.46901;-0.34097;69.9;NaN;;15.519;;0 / 28;1236;2021-10-27 16:51:25:821
-0.722;5.378;-3.86;7.843;0.771;-5.837;1.421;4.371;3.136;1.762;0.999;-0.305;131.0;-23.6;-23.4;30.7;151.8;-2.4;-125.2;0.0;55.55;39.46901;-0.34097;69.9;NaN;;15.519;;0 / 28;1287;2021-10-27 16:51:25:872
-0.849;6.297;-4.215;7.92;0.867;-5.722;1.531;3.267;2.314;1.895;1.494;-0.945;131.0;-24.2;-22.6;30.5;146.6;-9.5;-124.8;0.0;55.55;39.46901;-0.34097;69.9;NaN;;15.519;;0 / 28;1337;2021-10-27 16:51:25:922
-0.117;7.353;-3.935;8.6;0.311;-4.702;1.0;2.941;2.063;1.782;1.526;-1.15;131.0;-24.7;-22.6;30.1;156.2;-0.5;-126.3;0.0;55.55;39.46901;-0.34097;69.9;NaN;;15.519;;0 / 28;1387;2021-10-27 16:51:25:972
0.854;10.546;-5.122;8.859;-0.603;-4.166;-0.481;-1.562;1.893;1.627;1.427;-1.147;131.0;-25.1;-23.0;29.2;150.3;5.7;-116.0;0.0;55.55;39.46901;-0.34097;69.9;NaN;;15.519;;0 / 28;1437;2021-10-27 16:51:26:022
0.404;12.59;-6.173;8.346;-0.685;-5.1;-0.104;-3.867;2.692;1.627;1.427;-1.147;17.0;-25.4;-23.6;28.4;144.6;-1.5;-112.3;0.0;55.55;39.46901;-0.34097;69.9;NaN;;15.519;;0 / 28;1486;2021-10-27 16:51:26:071
2.396;12.81;-6.872;8.734;-1.858;-4.061;-1.557;-2.036;5.28;0.735;0.741;-0.203;17.0;-25.6;-24.5;26.9;170.7;7.8;-130.0;0.0;55.55;39.46901;-0.34097;69.9;NaN;;15.519;;0 / 28;1537;2021-10-27 16:51:26:122
1.278;8.42;0.71;9.577;-1.527;1.451;-1.408;-0.845;-4.6;-0.056;0.112;0.497;17.0;-25.4;-25.0;26.8;145.5;20.0;-98.1;0.0;55.55;39.46901;-0.34097;69.9;NaN;;15.519;;0 / 28;1587;2021-10-27 16:51:26:172
-1.175;4.212;0.282;9.208;3.318;0.632;1.461;4.71;-4.085;-0.402;-0.126;0.608;17.0;-24.5;-25.1;26.3;132.5;9.0;-81.4;0.0;55.88;39.46901;-0.34097;69.9;NaN;;15.519;;0 / 28;1637;2021-10-27 16:51:26:222
0.715;10.855;1.857;9.639;-0.666;1.681;0.393;-0.964;-4.752;-1.741;-0.752;0.238;17.0;-22.3;-25.4;26.7;120.2;-19.8;-86.1;0.0;55.88;39.46901;-0.34097;69.9;NaN;;15.519;;0 / 28;1687;2021-10-27 16:51:26:272
0.086;8.691;-0.483;9.783;-0.11;-0.67;0.316;-0.293;-3.287;-2.083;-0.759;-0.353;17.0;-20.3;-26.4;26.2;136.9;0.6;-93.9;0.0;55.88;39.46901;-0.34097;69.9;NaN;;15.519;;0 / 28;1737;2021-10-27 16:51:26:322
-0.528;8.645;0.531;9.759;0.713;0.651;0.349;1.039;-1.822;-1.278;-0.655;-0.339;17.0;-19.3;-27.1;25.9;135.5;-0.3;-88.8;0.0;55.88;39.46901;-0.34097;69.9;NaN;;15.519;;0 / 28;1787;2021-10-27 16:51:26:372
-1.823;8.765;1.357;9.486;2.021;1.451;1.989;1.068;-2.161;-1.017;-0.741;-0.129;59.0;-17.2;-28.9;24.3;134.7;-5.3;-84.1;0.0;55.88;39.46901;-0.34097;69.9;NaN;;15.519;;0 / 28;1837;2021-10-27 16:51:26:422
-0.737;9.287;-0.189;9.764;0.915;-0.158;1.069;0.591;-0.653;-0.59;-0.429;-0.463;59.0;-16.1;-29.8;24.2;136.4;-8.4;-85.7;0.0;55.88;39.46901;-0.34097;69.9;NaN;;15.519;;0 / 28;1887;2021-10-27 16:51:26:472
0.622;8.717;0.672;9.768;-0.819;0.364;-0.793;1.133;-1.087;-0.442;-0.382;-0.379;59.0;-14.6;-31.0;23.2;142.5;3.3;-84.5;0.0;54.68;39.46901;-0.34097;69.9;NaN;;15.519;;0 / 28;1937;2021-10-27 16:51:26:522
-0.033;9.675;1.474;9.711;0.0;1.36;-0.495;0.085;-1.606;-0.39;-0.426;-0.232;59.0;-14.2;-31.6;22.7;143.3;2.8;-84.4;0.0;54.68;39.46901;-0.34097;69.9;NaN;;15.519;;0 / 28;1987;2021-10-27 16:51:26:572
-0.651;10.934;1.136;9.735;0.8;0.867;0.117;-0.715;-1.149;-0.382;-0.652;0.095;59.0;-13.9;-32.4;21.3;143.1;-2.5;-82.4;0.0;54.68;39.46901;-0.34097;69.9;NaN;;15.519;;0 / 28;2037;2021-10-27 16:51:26:622
-1.879;11.537;1.397;9.586;1.666;1.221;1.299;-1.738;-1.121;-0.382;-0.63;0.094;59.0;-13.7;-32.7;20.5;145.2;-4.7;-84.9;0.0;54.68;39.46901;-0.34097;69.9;NaN;;15.519;;0 / 28;2087;2021-10-27 16:51:26:672
-1.63;10.922;-0.67;9.543;2.097;0.814;1.613;-0.85;0.38;-0.382;-0.63;0.094;59.0;-13.4;-32.8;19.6;147.8;-8.0;-92.8;0.0;54.68;39.46901;-0.34097;69.9;NaN;;15.519;;0 / 28;2136;2021-10-27 16:51:26:721
-1.294;10.713;1.967;9.687;1.097;1.049;0.944;-2.333;-0.58;-0.382;-0.63;0.094;113.0;-13.3;-32.5;19.1;145.9;-9.6;-84.7;0.0;54.68;39.46901;-0.34097;69.9;NaN;;15.519;;0 / 28;2186;2021-10-27 16:51:26:771
4.409;9.081;3.47;8.399;-3.778;3.371;-4.8;0.79;-2.905;-0.382;-0.63;0.094;113.0;-13.3;-31.8;19.8;144.4;-4.7;-67.0;0.0;54.68;39.46901;-0.34097;69.9;NaN;;15.519;;0 / 28;2236;2021-10-27 16:51:26:821
2.515;13.962;-1.196;9.644;-1.475;-1.001;-4.441;-3.612;1.226;-0.466;-1.1;0.652;113.0;-13.1;-30.7;20.8;144.2;29.5;-77.1;0.0;63.11;39.46901;-0.34097;69.9;NaN;;15.519;;0 / 28;2287;2021-10-27 16:51:26:872
1.23;8.439;0.026;9.697;-1.456;0.014;-0.506;0.972;1.979;-0.038;-1.11;0.827;113.0;-13.4;-28.3;23.1;143.5;-0.8;-99.4;0.0;63.11;39.46901;-0.34097;69.9;NaN;;15.519;;0 / 28;2337;2021-10-27 16:51:26:922
1.007;7.286;-1.479;9.495;-1.245;-2.121;-1.624;2.13;1.499;0.4;-1.144;1.014;113.0;-13.9;-26.5;24.3;143.0;15.1;-94.7;0.0;63.11;39.46901;-0.34097;69.9;NaN;;15.519;;0 / 28;2387;2021-10-27 16:51:26:972
1.744;6.826;-1.936;9.237;-1.7;-2.816;-0.153;1.733;3.038;1.117;0.097;0.245;113.0;-15.1;-24.3;25.1;144.1;5.8;-106.8;0.0;63.11;39.46901;-0.34097;69.9;NaN;;15.519;;0 / 28;2437;2021-10-27 16:51:27:022
1.926;4.942;-3.056;7.709;-1.686;-5.823;-1.154;4.572;2.73;1.035;-0.358;0.6;75.0;-15.7;-23.0;25.4;147.0;15.0;-108.9;0.0;63.11;39.46901;-0.34097;69.9;NaN;;15.519;;0 / 28;2487;2021-10-27 16:51:27:072
-0.564;5.28;-3.516;8.112;0.431;-5.492;0.859;5.482;2.704;1.921;0.925;-0.029;75.0;-16.4;-21.7;25.2;150.6;-2.5;-124.1;0.0;63.11;39.46901;-0.34097;69.9;NaN;;15.519;;0 / 28;2536;2021-10-27 16:51:27:121
-0.799;7.465;-3.595;8.428;0.91;-4.937;1.689;2.245;1.268;1.788;1.268;-0.368;75.0;-17.0;-21.4;25.1;139.4;-4.9;-113.7;0.0;60.95;39.46901;-0.34097;69.9;NaN;;15.519;;0 / 28;2587;2021-10-27 16:51:27:172
-0.981;9.493;-4.902;8.605;0.986;-4.602;1.793;0.629;2.627;1.597;1.906;-1.584;75.0;-17.3;-21.0;24.5;151.4;-6.4;-127.2;0.0;60.95;39.46901;-0.34097;69.9;NaN;;15.519;;0 / 28;2637;2021-10-27 16:51:27:222
1.828;12.748;-5.802;8.844;-1.202;-4.061;-1.358;-2.868;2.56;1.036;1.227;-0.996;75.0;-17.8;-21.2;23.8;145.2;-0.5;-114.4;0.0;60.95;39.46901;-0.34097;69.9;NaN;;15.519;;0 / 28;2687;2021-10-27 16:51:27:272
1.493;7.484;-7.049;6.852;-1.398;-6.876;-1.385;-2.515;3.463;0.8;0.901;-0.466;75.0;-18.4;-21.7;23.8;170.8;8.2;-135.1;0.0;60.95;39.46901;-0.34097;69.9;NaN;;15.519;;0 / 28;2737;2021-10-27 16:51:27:322
1.273;13.729;-5.316;9.495;-2.131;-1.221;-0.641;-4.016;2.084;0.947;1.066;-0.446;75.0;-19.3;-22.2;24.0;159.4;-1.1;-126.4;0.0;60.95;39.46901;-0.34097;69.9;NaN;;15.519;;0 / 28;2787;2021-10-27 16:51:27:372
0.744;6.211;1.232;9.108;-1.882;3.117;-0.793;2.548;-5.916;-0.177;-0.124;0.706;36.0;-20.3;-21.8;24.3;134.7;18.3;-82.4;0.0;60.95;39.46901;-0.34097;69.9;NaN;;15.519;;0 / 28;2837;2021-10-27 16:51:27:422
-0.452;8.308;3.379;9.117;0.172;3.606;4.307;3.808;-5.693;-0.868;-0.284;0.097;36.0;-20.8;-22.3;25.4;121.7;-23.1;-114.4;0.0;60.95;39.46901;-0.34097;69.9;NaN;;15.519;;0 / 28;2886;2021-10-27 16:51:27:471
0.569;10.338;0.064;9.792;-0.436;-0.263;-0.143;-1.114;-2.852;-2.268;-0.827;0.094;36.0;-21.4;-23.2;25.4;131.5;6.3;-81.1;0.0;56.62;39.46901;-0.34097;69.9;NaN;;15.519;;0 / 28;2936;2021-10-27 16:51:27:521
-0.39;8.131;1.515;9.759;0.555;0.833;0.776;2.075;-0.833;-1.554;-0.345;-0.557;36.0;-21.5;-24.5;25.4;137.5;-3.1;-100.6;0.0;56.62;39.46901;-0.34097;69.9;NaN;;15.519;;0 / 28;2986;2021-10-27 16:51:27:571
-1.833;8.483;0.418;9.553;2.131;0.608;1.592;0.931;-1.319;-1.103;-0.356;-0.153;36.0;-21.7;-26.5;25.2;131.5;-5.9;-83.8;0.0;56.62;39.46901;-0.34097;69.9;NaN;;15.519;;0 / 28;3037;2021-10-27 16:51:27:622
-0.809;8.389;0.809;9.716;0.905;0.972;1.01;1.242;-1.328;-0.562;-0.008;-0.395;36.0;-21.4;-27.1;24.8;131.5;-9.9;-87.1;0.0;56.62;39.46901;-0.34097;69.9;NaN;;15.519;;0 / 28;3086;2021-10-27 16:51:27:671
0.186;8.899;0.964;9.749;-0.311;1.025;0.021;1.212;-1.76;-0.663;-0.083;-0.346;36.0;-21.1;-28.1;23.5;138.7;1.8;-84.0;0.0;56.62;39.46901;-0.34097;69.9;NaN;;15.519;;0 / 28;3137;2021-10-27 16:51:27:722
0.392;9.799;0.466;9.797;-0.287;0.397;-0.526;0.251;-0.467;-0.538;-0.037;-0.263;209.0;-21.4;-28.6;21.8;143.5;4.6;-88.3;0.0;56.62;39.46901;-0.34097;69.9;NaN;;15.519;;0 / 28;3186;2021-10-27 16:51:27:771
-0.464;10.644;1.409;9.716;0.469;1.245;-0.064;-0.946;-0.771;-0.401;-0.043;0.137;209.0;-21.4;-29.2;19.6;143.0;-1.4;-85.8;0.0;57.52;39.46901;-0.34097;69.9;NaN;;15.519;;0 / 28;3236;2021-10-27 16:51:27:821
-2.099;11.439;1.113;9.582;1.853;0.939;0.997;-1.615;-0.678;-0.286;0.201;0.033;209.0;-21.2;-29.5;18.8;143.5;-4.9;-86.7;0.0;57.52;39.46901;-0.34097;69.9;NaN;;15.519;;0 / 28;3286;2021-10-27 16:51:27:871
-2.805;10.778;-0.411;9.5;2.385;-0.469;2.475;-1.203;0.673;-0.195;0.644;-0.417;209.0;-20.6;-29.3;17.9;141.8;-14.7;-90.4;0.0;57.52;39.46901;-0.34097;69.9;NaN;;15.519;;0 / 28;3336;2021-10-27 16:51:27:921
-2.451;11.302;1.385;9.433;2.054;1.719;2.795;-4.189;-1.469;-0.265;0.698;-0.63;209.0;-20.5;-29.5;18.2;138.4;-13.8;-78.7;0.0;57.52;39.46901;-0.34097;69.9;NaN;;15.519;;0 / 28;3387;2021-10-27 16:51:27:972
3.597;8.09;3.614;8.327;-3.165;4.104;-0.884;1.504;-4.592;-0.265;0.698;-0.63;209.0;-19.9;-28.9;18.6;137.7;-7.1;-63.1;0.0;57.52;39.46901;-0.34097;69.9;NaN;;15.519;;0 / 28;3437;2021-10-27 16:51:28:022
3.37;14.527;-2.379;9.471;-1.939;-1.657;-6.537;-4.197;1.92;-0.354;-0.631;0.744;291.0;-19.9;-28.5;19.8;144.9;32.2;-77.1;0.0;57.52;39.46901;-0.34097;69.9;NaN;;15.519;;0 / 28;3487;2021-10-27 16:51:28:072
-0.452;10.752;-1.926;9.716;0.273;-1.307;-0.425;-2.802;3.99;0.055;-0.708;1.009;291.0;-19.6;-26.8;21.8;144.0;-1.6;-97.7;0.0;57.52;39.46901;-0.34097;69.9;NaN;;15.519;;0 / 28;3537;2021-10-27 16:51:28:122
0.933;6.599;-0.751;9.644;-1.053;-1.427;-1.581;2.141;0.169;0.396;-0.962;1.211;291.0;-19.3;-25.9;23.7;139.1;14.4;-85.4;0.0;60.38;39.46901;-0.34097;69.9;NaN;;15.519;;0 / 28;3587;2021-10-27 16:51:28:172
1.567;6.996;-3.401;8.614;-1.7;-4.367;-0.096;3.154;4.152;1.105;0.179;0.244;291.0;-19.0;-24.4;25.7;155.7;5.7;-119.2;0.0;60.38;39.46901;-0.34097;69.9;NaN;;15.519;;0 / 28;3636;2021-10-27 16:51:28:221
2.573;4.748;-3.449;7.12;-3.749;-5.607;-1.943;4.33;2.199;0.934;-0.342;0.608;291.0;-19.1;-23.8;26.7;150.4;14.7;-111.7;0.0;60.38;39.46901;-0.34097;69.9;NaN;;15.519;;0 / 28;3686;2021-10-27 16:51:28:271
0.184;4.263;-3.272;7.91;-0.196;-5.794;0.559;5.975;2.693;1.668;-0.051;0.739;291.0;-19.6;-22.7;27.2;157.1;1.1;-126.2;0.0;60.38;39.46901;-0.34097;69.9;NaN;;15.519;;0 / 28;3737;2021-10-27 16:51:28:322
-0.399;7.401;-4.172;8.495;0.464;-4.879;1.78;2.612;1.689;1.795;0.535;0.119;291.0;-19.7;-22.7;27.5;143.1;-3.1;-116.7;0.0;60.38;39.46901;-0.34097;69.9;NaN;;15.519;;0 / 28;3787;2021-10-27 16:51:28:372
0.002;9.378;-5.593;8.447;-0.072;-4.985;1.693;1.224;2.785;1.629;1.111;-1.103;86.0;-19.7;-23.2;27.6;149.0;-2.6;-122.3;0.0;60.38;39.46901;-0.34097;69.9;NaN;;15.519;;0 / 28;3836;2021-10-27 16:51:28:421
-0.576;13.99;-4.892;9.203;0.579;-3.347;1.552;-3.393;2.226;0.992;0.658;-1.0;86.0;-19.3;-24.3;27.0;150.7;1.6;-119.0;0.0;61.42;39.46901;-0.34097;69.9;NaN;;15.519;;0 / 28;3887;2021-10-27 16:51:28:472
-0.217;4.813;-7.733;6.086;-0.335;-7.681;0.579;-1.11;3.494;0.743;0.477;-0.716;86.0;-19.3;-25.7;26.5;177.3;2.0;-141.6;0.0;61.42;39.46901;-0.34097;69.9;NaN;;15.519;;0 / 28;3937;2021-10-27 16:51:28:522
5.771;18.275;-1.299;9.424;-2.035;-1.8;-0.374;-3.235;1.933;0.844;0.762;-0.752;86.0;-19.3;-26.6;26.1;151.4;2.9;-115.2;0.0;61.42;39.46901;-0.34097;69.9;NaN;;15.519;;0 / 28;3987;2021-10-27 16:51:28:572
0.531;6.359;0.777;7.585;-2.782;5.559;-4.302;-1.22;-9.953;-0.327;-0.535;0.528;86.0;-19.3;-27.1;26.0;129.3;21.4;-59.1;0.0;61.42;39.46901;-0.34097;69.9;NaN;;15.519;;0 / 28;4036;2021-10-27 16:51:28:621
0.586;7.75;2.314;9.424;0.0;2.729;1.992;3.019;-5.233;-0.619;-0.798;0.737;86.0;-18.7;-28.0;25.7;134.0;-17.8;-109.4;0.0;61.42;39.46901;-0.34097;69.9;NaN;;15.519;;0 / 28;4086;2021-10-27 16:51:28:671
0.119;10.453;-1.139;9.634;0.479;-1.772;0.581;-0.551;-0.779;-0.619;-0.798;0.737;86.0;-17.9;-28.5;25.0;141.5;1.9;-94.4;0.0;61.42;39.46901;-0.34097;69.9;NaN;;15.519;;0 / 28;4137;2021-10-27 16:51:28:722
-0.519;8.789;2.518;9.376;0.493;2.844;0.681;1.901;-4.372;-0.619;-0.798;0.737;57.0;-17.0;-29.5;24.5;135.2;-3.9;-71.7;0.0;61.42;39.46901;-0.34097;69.9;NaN;;15.519;;0 / 28;4187;2021-10-27 16:51:28:772
-1.859;8.53;1.452;9.562;1.748;1.283;1.912;1.246;-2.003;-1.274;-0.708;-0.211;57.0;-15.4;-30.9;24.1;137.2;-8.6;-77.2;0.0;55.76;39.46901;-0.34097;69.9;NaN;;15.519;;0 / 28;4237;2021-10-27 16:51:28:822
-0.567;9.292;0.739;9.711;0.742;1.149;0.828;0.827;-0.883;-0.782;-0.266;-0.601;57.0;-14.0;-31.8;23.5;139.1;-7.9;-85.9;0.0;55.76;39.46901;-0.34097;69.9;NaN;;15.519;;0 / 28;4287;2021-10-27 16:51:28:872
0.38;9.576;0.627;9.783;-0.225;0.666;-0.369;0.173;-0.458;-0.654;-0.402;-0.431;57.0;-12.2;-33.0;22.7;143.8;-1.0;-84.4;0.0;55.76;39.46901;-0.34097;69.9;NaN;;15.519;;0 / 28;4337;2021-10-27 16:51:28:922
-0.959;9.182;1.007;9.634;1.255;1.341;-0.534;1.154;-0.423;-0.339;-0.477;-0.174;57.0;-11.6;-33.4;21.7;145.2;0.4;-84.9;0.0;55.76;39.46901;-0.34097;69.9;NaN;;15.519;;0 / 28;4387;2021-10-27 16:51:28:972
-0.73;10.093;0.5;9.797;0.359;0.268;0.615;0.33;-0.88;-0.22;-0.52;-0.045;57.0;-11.8;-33.7;21.3;144.1;-6.1;-79.0;0.0;55.76;39.46901;-0.34097;69.9;NaN;;15.519;;0 / 28;4437;2021-10-27 16:51:29:022
-1.649;11.099;0.947;9.673;1.441;0.752;0.593;-1.447;-0.756;-0.163;-0.459;-0.007;175.0;-11.9;-33.8;21.3;146.8;-3.1;-85.9;0.0;55.76;39.46901;-0.34097;69.9;NaN;;15.519;;0 / 28;4487;2021-10-27 16:51:29:072
-2.077;11.506;1.711;9.361;2.064;2.064;1.164;-1.375;-0.479;-0.089;-0.019;-0.251;175.0;-12.1;-33.7;21.9;146.2;-6.0;-91.3;0.0;58.79;39.46901;-0.34097;69.9;NaN;;15.519;;0 / 28;4537;2021-10-27 16:51:29:122
-2.482;11.396;1.857;9.443;2.035;1.7;2.059;-2.35;-0.76;-0.049;0.107;-0.305;175.0;-11.8;-33.4;22.7;141.2;-12.7;-83.2;0.0;58.79;39.46901;-0.34097;69.9;NaN;;15.519;;0 / 28;4587;2021-10-27 16:51:29:172
3.81;7.812;3.609;8.059;-4.161;3.73;-3.923;1.483;-2.412;-0.375;-0.304;-0.12;175.0;-11.9;-32.6;25.3;141.0;-0.4;-68.9;0.0;58.79;39.46901;-0.34097;69.9;NaN;;15.519;;0 / 28;4637;2021-10-27 16:51:29:222
1.462;13.971;-1.022;9.687;-1.475;-0.455;-5.206;-1.493;1.037;-0.465;-1.054;0.449;175.0;-12.5;-31.4;28.1;134.3;25.1;-65.2;0.0;58.79;39.46901;-0.34097;69.9;NaN;;15.519;;0 / 28;4686;2021-10-27 16:51:29:271
-0.859;10.436;-0.495;9.73;0.924;-0.79;0.069;-3.94;2.817;-0.27;-1.108;0.545;175.0;-14.6;-28.4;32.4;130.5;-5.4;-94.6;0.0;58.79;39.46901;-0.34097;69.9;NaN;;15.519;;0 / 28;4736;2021-10-27 16:51:29:321
1.043;6.996;-1.208;9.184;-0.575;-3.385;-1.136;2.639;1.847;-0.27;-1.108;0.545;175.0;-16.9;-25.9;34.7;127.9;7.5;-87.6;0.0;58.79;39.46901;-0.34097;69.9;NaN;;15.519;;0 / 28;4786;2021-10-27 16:51:29:371
0.897;7.652;-3.032;9.127;-1.369;-3.323;-0.207;2.256;3.991;-0.27;-1.108;0.545;223.0;-20.8;-22.9;36.4;135.5;1.9;-114.2;0.0;58.79;39.46901;-0.34097;69.9;NaN;;15.519;;0 / 28;4836;2021-10-27 16:51:29:421
1.45;5.115;-2.542;8.581;-2.418;-4.085;-1.088;4.335;2.217;1.304;0.324;0.293;223.0;-23.8;-21.1;36.7;135.0;10.0;-109.7;0.0;58.42;39.46901;-0.34097;69.9;NaN;;15.519;;0 / 28;4887;2021-10-27 16:51:29:472
0.344;4.37;-3.652;7.532;-0.35;-6.273;0.268;5.252;2.808;1.998;1.073;0.089;223.0;-27.2;-19.8;35.9;156.7;5.0;-129.9;0.0;58.42;39.46901;-0.34097;69.9;NaN;;15.519;;0 / 28;4937;2021-10-27 16:51:29:522
0.067;7.125;-3.705;8.701;0.0;-4.53;0.626;2.988;1.674;1.759;1.219;-0.044;223.0;-29.3;-19.8;34.7;139.2;-1.7;-119.5;0.0;58.42;39.46901;-0.34097;69.9;NaN;;15.519;;0 / 28;4987;2021-10-27 16:51:29:572
0.011;13.167;-4.16;9.376;0.096;-2.868;-0.101;-2.117;1.899;0.878;1.232;-0.755;223.0;-31.7;-22.3;30.7;143.3;2.3;-112.6;0.0;58.42;39.46901;-0.34097;69.9;NaN;;15.519;;0 / 28;5075;2021-10-27 16:51:29:660
-0.71;14.385;-4.468;9.333;0.445;-2.978;0.577;-4.012;1.161;0.878;1.232;-0.755;223.0;-31.7;-22.3;30.7;143.3;2.3;-112.6;0.0;58.42;39.46901;-0.34097;69.9;NaN;;15.519;;0 / 28;5086;2021-10-27 16:51:29:671
-0.306;5.586;-7.733;5.531;0.297;-8.092;0.835;-0.78;4.746;0.834;1.395;-0.874;223.0;-32.0;-24.1;27.2;206.2;-1.7;-145.7;0.0;58.42;39.46901;-0.34097;69.9;NaN;;15.519;;0 / 28;5137;2021-10-27 16:51:29:722
4.425;15.458;-3.98;9.179;-3.261;-1.101;-2.733;-4.553;2.102;0.71;1.438;-0.666;68.0;-31.7;-25.3;24.9;161.2;11.0;-112.5;0.0;60.73;39.46901;-0.34097;69.9;NaN;;15.519;;0 / 28;5187;2021-10-27 16:51:29:772
0.167;5.62;-0.409;9.706;0.445;-1.336;-1.015;2.698;-4.773;0.018;1.026;0.044;68.0;-30.7;-27.1;22.2;133.8;18.4;-69.1;0.0;60.73;39.46901;-0.34097;69.9;NaN;;15.519;;0 / 28;5236;2021-10-27 16:51:29:821
-2.101;7.853;0.83;9.457;2.107;1.537;3.731;3.388;-3.427;-0.577;0.688;0.079;68.0;-29.0;-27.5;21.5;145.2;-2.6;-97.8;0.0;60.73;39.46901;-0.34097;69.9;NaN;;15.519;;0 / 28;5287;2021-10-27 16:51:29:872
-0.521;10.211;-0.567;9.783;0.163;0.632;-0.174;-1.529;-7.239;-2.265;-0.271;0.022;68.0;-27.2;-28.4;20.0;141.8;-1.0;-86.3;0.0;60.73;39.46901;-0.34097;69.9;NaN;;15.519;;0 / 28;5337;2021-10-27 16:51:29:922
-0.452;7.642;0.505;9.783;0.651;0.297;0.912;2.153;-1.371;-2.013;-0.081;-0.459;68.0;-25.4;-29.2;18.9;151.3;-4.0;-99.2;0.0;60.73;39.46897;-0.34101;69.4;NaN;;14.41;;0 / 28;5387;2021-10-27 16:51:29:972
-1.359;8.693;1.634;9.515;1.595;1.762;1.656;1.056;-2.435;-2.013;-0.081;-0.459;68.0;-23.6;-30.3;17.3;144.4;-2.2;-82.8;0.0;60.73;39.46897;-0.34101;69.4;NaN;;14.41;;0 / 28;5438;2021-10-27 16:51:30:023
-0.464;9.067;-0.186;9.778;0.713;-0.168;0.881;1.274;-0.655;-0.655;0.14;-0.431;233.0;-22.1;-31.0;16.5;142.7;-9.4;-79.5;0.0;60.73;39.46897;-0.34101;69.4;NaN;;14.41;;0 / 28;5487;2021-10-27 16:51:30:072
-0.485;8.633;1.388;9.692;0.469;1.427;0.095;1.107;-1.566;-0.559;0.169;-0.444;233.0;-20.9;-31.4;15.5;147.8;-3.9;-82.4;0.0;54.12;39.46897;-0.34101;69.4;NaN;;14.41;;0 / 28;5537;2021-10-27 16:51:30:122
-0.153;9.423;1.192;9.706;0.235;1.374;-0.302;0.875;-0.6;-0.495;0.026;-0.267;233.0;-20.2;-31.6;14.8;153.0;-0.9;-86.7;0.0;54.12;39.46897;-0.34101;69.4;NaN;;14.41;;0 / 28;5590;2021-10-27 16:51:30:175
-0.548;10.96;1.117;9.759;0.364;0.895;0.01;-0.735;-1.443;-0.394;-0.156;0.044;233.0;-20.0;-31.6;14.1;152.9;-0.3;-83.0;0.0;54.12;39.46897;-0.34101;69.4;NaN;;14.41;;0 / 28;5636;2021-10-27 16:51:30:221
-1.476;11.187;1.737;9.625;1.159;1.484;0.623;-1.501;-1.156;-0.373;-0.135;0.031;233.0;-20.0;-31.9;13.5;153.2;-2.9;-85.1;0.0;54.12;39.46897;-0.34101;69.4;NaN;;14.41;;0 / 28;5687;2021-10-27 16:51:30:272
-1.002;11.489;0.074;9.764;0.924;0.129;1.359;-1.725;-0.352;-0.284;0.101;-0.149;233.0;-20.0;-31.9;13.3;156.1;-5.4;-89.2;0.0;54.12;39.46897;-0.34101;69.4;NaN;;14.41;;0 / 28;5737;2021-10-27 16:51:30:322
-1.546;11.846;2.458;9.529;1.14;2.016;1.851;-3.308;-0.978;-0.274;0.222;-0.289;233.0;-20.2;-31.9;13.4;151.8;-9.9;-83.5;0.0;54.12;39.46897;-0.34101;69.4;NaN;;14.41;;0 / 28;5787;2021-10-27 16:51:30:372
2.74;8.796;2.561;9.117;-2.442;2.662;-0.842;-1.28;-2.13;-0.41;-0.14;-0.065;554.0;-19.9;-31.8;14.1;149.9;-3.8;-77.9;0.0;59.46;39.46897;-0.34101;69.4;NaN;;14.41;;0 / 28;5837;2021-10-27 16:51:30:422
3.911;9.478;0.596;9.481;-2.437;0.579;-5.796;1.265;-0.281;-0.52;-0.83;0.524;554.0;-20.0;-31.3;15.2;147.6;24.9;-66.5;0.0;59.46;39.46897;-0.34101;69.4;NaN;;14.41;;0 / 28;5886;2021-10-27 16:51:30:471
0.366;11.336;-2.379;9.586;-0.369;-2.03;-0.587;-3.427;2.416;-0.013;-0.875;0.831;554.0;-19.9;-30.7;17.6;157.1;2.2;-102.0;0.0;59.46;39.46897;-0.34101;69.4;NaN;;14.41;;0 / 28;5937;2021-10-27 16:51:30:522
2.326;8.15;-0.751;9.4;-2.155;-1.791;-2.153;0.776;0.913;0.242;-1.045;0.955;554.0;-20.0;-29.8;19.5;148.9;11.0;-89.7;0.0;59.46;39.46897;-0.34101;69.4;NaN;;14.41;;0 / 28;5987;2021-10-27 16:51:30:572
0.727;7.824;-2.994;9.227;-0.785;-3.232;-0.184;2.083;3.527;1.154;0.272;0.283;554.0;-19.6;-28.6;22.3;156.7;6.4;-110.4;0.0;59.46;39.46897;-0.34101;69.4;NaN;;14.41;;0 / 28;6037;2021-10-27 16:51:30:622
1.488;5.577;-1.45;9.088;-2.528;-2.686;-0.579;4.097;1.532;1.203;0.147;0.318;554.0;-20.0;-27.4;23.8;149.5;8.9;-101.6;0.0;59.46;39.46897;-0.34101;69.4;NaN;;14.41;;0 / 28;6087;2021-10-27 16:51:30:672
0.33;3.671;-3.693;7.087;-0.891;-6.718;-0.099;5.859;2.788;1.203;0.147;0.318;554.0;-20.3;-26.3;25.2;169.9;5.9;-132.0;0.0;59.46;39.46897;-0.34101;69.4;NaN;;14.41;;0 / 28;6137;2021-10-27 16:51:30:722
0.265;7.659;-3.772;8.59;0.12;-4.736;1.13;3.265;2.339;1.92;1.063;-0.228;379.0;-20.6;-26.1;25.4;160.3;-0.9;-123.7;0.0;59.59;39.46897;-0.34101;69.4;NaN;;14.41;;0 / 28;6187;2021-10-27 16:51:30:772
-1.067;8.808;-5.558;8.179;0.977;-5.32;1.307;1.423;2.712;1.825;1.163;-0.524;379.0;-20.6;-27.1;25.2;156.3;-1.6;-119.4;0.0;59.59;39.46897;-0.34101;69.4;NaN;;14.41;;0 / 28;6237;2021-10-27 16:51:30:822
-0.488;13.634;-5.072;9.222;0.335;-3.318;0.926;-3.163;2.368;1.287;0.935;-0.96;379.0;-20.6;-28.0;24.5;158.2;-5.7;-123.0;0.0;59.59;39.46897;-0.34101;69.4;NaN;;14.41;;0 / 28;6286;2021-10-27 16:51:30:871
0.102;7.422;-7.427;6.972;0.11;-6.895;0.118;-1.948;3.646;0.78;0.467;-0.59;379.0;-20.8;-29.2;23.3;169.2;1.4;-127.1;0.0;59.59;39.46897;-0.34101;69.4;NaN;;14.41;;0 / 28;6337;2021-10-27 16:51:30:922
5.06;11.795;0.77;9.055;-3.649;-0.939;-3.943;-4.622;0.868;0.635;0.469;-0.199;379.0;-20.9;-29.7;23.0;160.3;12.4;-113.6;0.0;59.59;39.46897;-0.34101;69.4;NaN;;14.41;;0 / 28;6387;2021-10-27 16:51:30:972
0.344;6.608;0.545;9.807;0.124;-0.019;-0.335;2.3;-4.67;-0.273;-0.607;0.76;379.0;-21.2;-29.8;23.0;139.9;20.3;-74.5;0.0;59.59;39.46897;-0.34101;69.4;NaN;;14.41;;0 / 28;6437;2021-10-27 16:51:31:022
-3.03;8.351;0.5;9.031;3.816;-0.187;4.149;2.537;-1.763;-0.716;-0.738;0.44;90.0;-21.1;-30.4;23.3;134.3;-23.6;-103.2;0.0;59.85;39.46897;-0.34101;69.4;NaN;;14.41;;0 / 28;6486;2021-10-27 16:51:31:071
-0.26;9.641;0.576;9.749;0.053;1.063;-0.48;-1.614;-8.086;-2.304;-1.515;-0.068;90.0;-20.6;-31.0;23.3;140.9;-0.3;-83.8;0.0;59.85;39.46897;-0.34101;69.4;NaN;;14.41;;0 / 28;6536;2021-10-27 16:51:31:121
0.442;8.435;0.466;9.697;-0.718;1.274;0.256;1.78;-0.689;-1.302;-0.658;-0.628;90.0;-20.2;-32.1;22.9;149.8;-4.2;-103.9;0.0;59.85;39.46897;-0.34101;69.4;NaN;;14.41;;0 / 28;6587;2021-10-27 16:51:31:172
-1.366;8.837;1.038;9.629;1.528;1.068;1.213;0.901;-2.083;-1.286;-0.883;-0.099;90.0;-19.6;-33.0;21.9;144.3;5.0;-81.7;0.0;59.85;39.46897;-0.34101;69.4;NaN;;14.41;;0 / 28;6637;2021-10-27 16:51:31:222
-0.66;9.174;0.026;9.72;1.221;0.412;1.039;1.024;-0.795;-0.552;-0.349;-0.214;90.0;-19.3;-33.9;21.3;145.1;-9.4;-89.2;0.0;59.85;39.46897;-0.34101;69.4;NaN;;14.41;;0 / 28;6687;2021-10-27 16:51:31:272
-1.01;8.219;0.713;9.701;1.159;0.857;0.646;1.484;-1.122;-0.454;-0.241;-0.272;90.0;-19.0;-34.6;20.5;146.1;-4.3;-87.3;0.0;59.85;39.46897;-0.34101;69.4;NaN;;14.41;;0 / 28;6737;2021-10-27 16:51:31:322
0.272;8.935;0.215;9.778;-0.455;0.627;-0.667;0.846;-0.341;-0.454;-0.241;-0.272;90.0;-18.7;-35.3;20.0;148.5;-3.4;-87.6;0.0;59.85;39.46897;-0.34101;69.4;NaN;;14.41;;0 / 28;6786;2021-10-27 16:51:31:371
-0.567;10.721;0.876;9.773;0.038;0.814;-1.208;-0.327;-1.607;-0.403;-0.265;0.026;473.0;-18.8;-35.6;19.0;150.3;-0.2;-85.2;0.0;54.24;39.46897;-0.34101;69.4;NaN;;14.41;;0 / 28;6836;2021-10-27 16:51:31:421
-1.737;11.975;1.215;9.668;1.279;1.034;1.06;-2.03;-0.808;-0.412;-0.27;0.052;473.0;-18.5;-35.8;18.7;148.6;-6.2;-84.0;0.0;54.24;39.46897;-0.34101;69.4;NaN;;14.41;;0 / 28;6887;2021-10-27 16:51:31:472
-2.051;10.888;0.828;9.596;1.796;0.919;1.269;-1.67;0.269;-0.343;-0.118;-0.037;473.0;-18.8;-35.5;18.5;148.4;-8.7;-86.2;0.0;54.24;39.46897;-0.34101;69.4;NaN;;14.41;;0 / 28;6937;2021-10-27 16:51:31:522
-1.955;12.463;1.385;9.644;1.293;1.207;2.311;-3.809;-0.704;-0.284;0.284;-0.419;473.0;-18.8;-35.4;18.5;148.5;-10.6;-84.5;0.0;54.24;39.46897;-0.34101;69.4;NaN;;14.41;;0 / 28;6987;2021-10-27 16:51:31:572
1.879;9.615;3.765;8.945;-1.997;3.496;-1.257;-1.239;-2.29;-0.272;0.205;-0.341;473.0;-19.1;-34.8;18.9;146.0;11.7;-68.7;0.0;54.24;39.46897;-0.34101;69.4;NaN;;14.41;;0 / 28;7037;2021-10-27 16:51:31:622
5.459;8.846;0.181;8.543;-4.817;-0.177;-6.285;1.85;-0.673;-0.544;-0.851;0.471;473.0;-19.3;-34.1;20.0;144.4;33.5;-71.6;0.0;54.24;39.46897;-0.34101;69.4;NaN;;14.41;;0 / 28;7086;2021-10-27 16:51:31:671
0.61;13.167;-1.476;9.668;-0.215;-1.638;-0.392;-3.13;3.307;-0.229;-1.091;0.87;473.0;-19.4;-32.5;22.7;151.1;13.6;-94.7;0.0;58.56;39.46897;-0.34101;69.4;NaN;;14.41;;0 / 28;7137;2021-10-27 16:51:31:722
1.998;8.552;0.234;9.543;-2.27;0.11;-0.971;0.906;0.979;0.264;-1.011;0.981;488.0;-19.4;-31.3;24.7;148.0;1.3;-99.6;0.0;58.56;39.46897;-0.34101;69.4;NaN;;14.41;;0 / 28;7187;2021-10-27 16:51:31:772
1.17;8.107;-3.145;9.017;-1.12;-3.692;-0.067;1.738;3.782;0.752;-0.497;0.708;488.0;-19.7;-29.2;27.6;148.1;5.1;-109.9;0.0;58.56;39.46897;-0.34101;69.4;NaN;;14.41;;0 / 28;7237;2021-10-27 16:51:31:822
1.357;6.371;-1.196;9.39;-1.901;-2.088;-0.32;2.813;1.697;1.108;0.15;0.17;488.0;-19.7;-28.3;28.7;143.6;8.4;-104.1;0.0;58.56;39.46897;-0.34101;69.4;NaN;;14.41;;0 / 28;7287;2021-10-27 16:51:31:872
0.04;2.872;-3.971;6.78;-1.776;-6.862;-0.582;5.168;2.078;1.057;-0.212;0.457;488.0;-20.2;-26.8;30.2;144.1;13.1;-105.5;0.0;58.56;39.46897;-0.34101;69.4;NaN;;14.41;;0 / 28;7336;2021-10-27 16:51:31:921
0.126;6.003;-3.683;8.447;-0.297;-4.98;1.105;4.213;2.618;1.89;0.706;0.033;488.0;-20.5;-26.2;30.3;176.7;-0.8;-144.0;0.0;58.56;39.46897;-0.34101;69.4;NaN;;14.41;;0 / 28;7386;2021-10-27 16:51:31:971
-1.5;8.253;-5.273;8.222;1.547;-5.119;2.457;1.166;2.931;1.788;0.886;-0.208;488.0;-21.4;-26.7;29.9;151.2;-3.1;-122.8;0.0;60.84;39.46897;-0.34101;69.4;NaN;;14.41;;0 / 28;7437;2021-10-27 16:51:32:022
-0.021;12.566;-4.131;9.347;0.038;-2.969;0.638;-2.874;1.279;1.397;1.13;-0.971;94.0;-21.2;-27.5;29.4;143.6;-0.5;-110.6;0.0;60.84;39.46897;-0.34101;69.4;NaN;;14.41;;0 / 28;7487;2021-10-27 16:51:32:072
-0.593;7.171;-8.952;6.675;0.417;-7.173;0.875;1.233;5.456;1.397;1.13;-0.971;94.0;-21.2;-28.3;27.8;142.6;-1.5;-106.6;0.0;60.84;39.46897;-0.34101;69.4;NaN;;14.41;;0 / 28;7537;2021-10-27 16:51:32:122
0.289;9.766;-6.922;7.728;0.206;-6.038;1.451;0.843;3.993;0.859;0.904;-0.925;94.0;-20.9;-28.7;27.2;197.2;-8.1;-155.3;0.0;60.84;39.46897;-0.34101;69.4;NaN;;14.41;;0 / 28;7587;2021-10-27 16:51:32:172
3.896;10.733;5.39;8.456;-3.208;3.788;-6.161;-6.726;-5.781;0.113;0.025;0.249;94.0;-20.3;-29.4;26.7;132.2;19.1;-65.9;0.0;60.84;39.46897;-0.34101;69.4;NaN;;14.41;;0 / 28;7637;2021-10-27 16:51:32:222
-3.099;3.954;0.083;7.748;6.005;0.34;3.235;5.182;-2.643;-0.315;-0.28;0.461;94.0;-20.2;-30.2;26.6;139.7;-17.0;-112.7;0.0;60.84;39.46897;-0.34101;69.4;NaN;;14.41;;0 / 28;7687;2021-10-27 16:51:32:272
1.361;11.786;3.796;9.424;-1.01;2.519;-0.519;-1.136;-8.532;-2.369;-1.537;0.564;94.0;-19.0;-31.2;26.3;132.5;-14.4;-79.4;0.0;60.84;39.46897;-0.34101;69.4;NaN;;14.41;;0 / 28;7737;2021-10-27 16:51:32:322
-0.943;7.961;-1.177;9.759;0.508;0.819;1.335;1.318;0.228;-1.822;-0.894;-0.264;94.0;-18.1;-32.2;25.4;141.4;-1.2;-92.3;0.0;57.9;39.46897;-0.34101;69.4;NaN;;14.41;;0 / 28;7787;2021-10-27 16:51:32:372
-0.624;8.983;1.096;9.72;0.809;1.015;-0.158;0.923;-3.321;-1.31;-0.719;-0.256;108.0;-16.9;-33.4;24.4;141.2;-0.2;-80.2;0.0;57.9;39.46897;-0.34101;69.4;NaN;;14.41;;0 / 28;7837;2021-10-27 16:51:32:422
-1.077;8.724;0.38;9.673;1.417;0.761;1.529;1.463;-1.317;-0.746;-0.399;-0.312;108.0;-16.3;-34.0;24.2;139.6;-13.5;-84.7;0.0;57.9;39.46897;-0.34101;69.4;NaN;;14.41;;0 / 28;7887;2021-10-27 16:51:32:472
-0.32;8.767;0.351;9.792;0.235;0.527;0.3;0.927;-1.06;-0.55;-0.228;-0.371;108.0;-15.8;-34.5;23.6;142.8;-3.4;-85.6;0.0;57.9;39.46897;-0.34101;69.4;NaN;;14.41;;0 / 28;7937;2021-10-27 16:51:32:522
-0.517;9.17;0.124;9.797;0.378;0.283;-0.022;0.644;-0.25;-0.466;-0.22;-0.299;108.0;-15.7;-35.2;23.3;144.7;-2.2;-88.7;0.0;57.9;39.46897;-0.34101;69.4;NaN;;14.41;;0 / 28;7987;2021-10-27 16:51:32:572
-0.225;10.723;0.883;9.74;0.642;0.929;0.386;-0.327;-0.967;-0.355;-0.19;-0.217;108.0;-16.0;-36.1;22.1;146.2;-3.8;-84.6;0.0;57.9;39.46897;-0.34101;69.4;NaN;;14.41;;0 / 28;8037;2021-10-27 16:51:32:622
-0.488;11.664;1.254;9.73;0.239;1.216;-0.075;-1.798;-0.932;-0.355;-0.19;-0.217;108.0;-16.1;-36.7;21.5;147.8;1.0;-84.5;0.0;57.51;39.46897;-0.34101;69.4;NaN;;14.41;;0 / 28;8087;2021-10-27 16:51:32:672
-0.557;11.027;0.543;9.797;0.373;0.292;0.468;-1.24;-0.737;-0.355;-0.19;-0.217;108.0;-16.9;-37.0;21.5;146.3;-4.5;-83.1;0.0;57.51;39.46897;-0.34101;69.4;NaN;;14.41;;0 / 28;8137;2021-10-27 16:51:32:722
-2.618;12.925;1.484;9.519;2.03;1.192;1.63;-3.383;-1.81;-0.355;-0.19;-0.217;350.0;-17.5;-36.7;21.7;149.0;-2.3;-90.6;0.0;57.51;39.46897;-0.34101;69.4;NaN;;14.41;;0 / 28;8187;2021-10-27 16:51:32:772
0.54;9.493;3.209;9.452;0.603;2.547;1.647;-1.283;-2.492;-0.389;0.159;-0.288;350.0;-18.8;-35.9;23.6;141.4;-3.5;-74.9;0.0;57.51;39.46897;-0.34101;69.4;NaN;;14.41;;0 / 28;8237;2021-10-27 16:51:32:822
4.674;8.291;3.492;7.614;-4.492;4.252;-4.278;2.859;-3.407;-0.683;-0.306;0.093;350.0;-19.7;-34.9;25.4;137.9;17.0;-60.6;0.0;57.51;39.46897;-0.34101;69.4;NaN;;14.41;;0 / 28;8286;2021-10-27 16:51:32:871
0.244;14.728;-3.406;9.697;-0.536;-1.389;-2.273;-3.143;0.155;-0.714;-0.637;0.415;350.0;-22.3;-32.5;28.9;137.0;24.5;-73.8;0.0;57.51;39.46897;-0.34101;69.4;NaN;;14.41;;0 / 28;8337;2021-10-27 16:51:32:922
1.448;9.335;-0.004;9.706;-1.389;0.057;-0.984;-0.266;1.414;0.148;-0.563;0.73;350.0;-24.5;-31.0;30.6;143.3;-0.7;-104.0;0.0;57.51;39.46897;-0.34101;69.4;NaN;;14.41;;0 / 28;8386;2021-10-27 16:51:32:971
0.229;7.121;-2.898;8.916;0.364;-4.07;0.104;2.414;3.9;1.094;0.363;0.362;350.0;-27.8;-28.6;32.3;150.1;0.2;-115.6;0.0;57.16;39.46897;-0.34101;69.4;NaN;;14.41;;0 / 28;8437;2021-10-27 16:51:33:022
-0.023;6.11;-2.532;9.16;0.196;-3.496;0.654;3.18;2.53;1.484;1.136;-0.199;91.0;-29.6;-27.3;32.8;138.5;-5.3;-110.3;0.0;57.16;39.46897;-0.34101;69.4;NaN;;14.41;;0 / 28;8487;2021-10-27 16:51:33:072
0.246;3.056;-4.229;5.784;-0.263;-7.915;-0.834;5.956;3.922;2.079;1.749;-0.321;91.0;-31.1;-26.7;31.5;173.3;9.1;-130.8;0.0;57.16;39.46897;-0.34101;69.4;NaN;;14.41;;0 / 28;8537;2021-10-27 16:51:33:122
-0.871;7.123;-2.846;8.978;1.053;-3.802;1.279;3.729;0.694;1.961;1.852;-0.672;91.0;-32.2;-27.0;30.5;173.5;-2.6;-130.4;0.0;57.16;39.46897;-0.34101;69.4;NaN;;14.41;;0 / 28;8587;2021-10-27 16:51:33:172
-1.151;7.355;-4.191;8.337;1.322;-4.994;0.875;2.291;2.422;1.519;1.545;-0.713;91.0;-33.1;-28.3;27.5;162.2;-7.7;-120.9;0.0;57.16;39.46897;-0.34101;69.4;NaN;;14.41;;0 / 28;8637;2021-10-27 16:51:33:222
0.043;10.838;-1.946;9.62;0.048;-1.911;-0.481;-1.297;-1.087;0.649;0.915;-0.609;91.0;-34.3;-28.8;25.5;145.6;1.1;-99.0;0.0;57.16;39.46897;-0.34101;69.4;NaN;;14.41;;0 / 28;8687;2021-10-27 16:51:33:272
0.263;12.006;-7.46;8.638;-0.795;-4.583;-1.004;-2.989;4.111;0.314;0.743;-0.488;91.0;-35.2;-29.6;22.0;168.9;-1.7;-115.9;0.0;61.31;39.46897;-0.34101;69.4;NaN;;14.41;;0 / 28;8737;2021-10-27 16:51:33:322
4.794;13.267;-1.84;9.151;-2.887;-2.021;-4.315;-5.774;0.716;0.314;0.743;-0.488;91.0;-35.5;-29.8;19.9;176.3;4.6;-117.9;0.0;61.31;39.46897;-0.34101;69.4;NaN;;14.41;;0 / 28;8787;2021-10-27 16:51:33:372
-0.579;3.185;1.594;9.261;1.283;2.959;-0.27;4.589;-3.406;0.314;0.743;-0.488;13.0;-34.4;-30.1;17.3;134.6;-7.5;-72.3;0.0;61.31;39.46897;-0.34101;69.4;NaN;;14.41;;0 / 28;8837;2021-10-27 16:51:33:422
0.414;9.655;1.467;9.639;-0.536;1.714;-0.166;0.764;-4.483;0.314;0.743;-0.488;13.0;-33.4;-30.8;15.7;144.5;0.6;-78.3;0.0;61.31;39.46897;-0.34101;69.4;NaN;;14.41;;0 / 28;8886;2021-10-27 16:51:33:471
-0.45;10.998;-0.698;9.792;0.364;-0.412;0.469;-1.637;-3.064;-1.653;-0.147;0.006;13.0;-31.6;-31.3;13.9;149.2;0.4;-83.4;0.0;61.31;39.46897;-0.34101;69.4;NaN;;14.41;;0 / 28;8937;2021-10-27 16:51:33:522
1.153;8.772;0.663;9.658;-1.326;1.092;-0.694;0.882;-1.859;-1.251;0.101;-0.201;13.0;-30.8;-32.1;12.5;165.7;-0.9;-98.9;0.0;61.31;39.46897;-0.34101;69.4;NaN;;14.41;;0 / 28;8986;2021-10-27 16:51:33:571
0.229;7.86;-0.842;9.802;-0.297;0.034;-0.24;1.317;-1.493;-1.038;0.14;-0.035;13.0;-30.1;-32.4;10.9;161.3;1.7;-89.8;0.0;51.98;39.46897;-0.34101;69.4;NaN;;14.41;;0 / 28;9036;2021-10-27 16:51:33:621
-0.871;7.75;0.031;9.778;0.737;-0.081;1.439;2.128;-1.095;-0.324;0.531;-0.13;13.0;-29.5;-33.1;10.1;163.6;-4.5;-91.9;0.0;51.98;39.46897;-0.34101;69.4;NaN;;14.41;;0 / 28;9087;2021-10-27 16:51:33:672
0.945;8.037;2.654;9.457;-0.685;2.495;0.47;1.352;-1.741;-0.43;0.38;-0.068;13.0;-28.3;-33.0;9.4;159.4;-0.7;-83.4;0.0;51.98;39.46897;-0.34101;69.4;NaN;;14.41;;0 / 28;9136;2021-10-27 16:51:33:721
2.068;11.941;0.339;9.668;-1.614;0.239;-1.684;-1.961;-0.781;-0.686;0.034;0.006;49.0;-27.8;-33.1;8.9;152.7;7.4;-69.1;0.0;51.98;39.46897;-0.34101;69.4;NaN;;14.41;;0 / 28;9187;2021-10-27 16:51:33:772
-1.383;8.722;-0.375;9.72;1.302;-0.177;0.909;-0.144;-0.323;-0.637;-0.026;0.073;49.0;-27.8;-33.1;7.5;165.5;-7.6;-91.0;0.0;51.98;39.46897;-0.34101;69.4;NaN;;14.41;;0 / 28;9237;2021-10-27 16:51:33:822
-1.366;9.469;1.388;9.644;0.546;1.686;1.857;0.453;-1.014;-0.426;0.139;-0.009;49.0;-27.7;-33.3;7.1;159.8;-8.8;-82.8;0.0;51.98;39.46897;-0.34101;69.4;NaN;;14.41;;0 / 28;9287;2021-10-27 16:51:33:872
-1.096;11.087;1.393;9.716;0.848;1.015;1.651;-1.044;-1.814;-0.222;0.502;-0.473;49.0;-27.5;-33.5;7.3;159.7;-2.0;-79.8;0.0;51.98;39.46897;-0.34101;69.4;NaN;;14.41;;0 / 28;9337;2021-10-27 16:51:33:922
-2.254;12.856;1.826;9.519;1.585;1.733;2.197;-3.454;-2.004;-0.189;0.505;-0.484;49.0;-27.1;-33.7;8.3;169.5;-1.2;-94.2;0.0;55.5;39.46897;-0.34101;69.4;NaN;;14.41;;0 / 28;9387;2021-10-27 16:51:33:972
-0.337;12.602;2.422;9.639;0.124;1.796;0.585;-2.999;-1.422;-0.319;0.058;-0.269;49.0;-26.3;-34.0;9.3;158.0;-0.7;-79.4;0.0;55.5;39.46897;-0.34101;69.4;NaN;;14.41;;0 / 28;9436;2021-10-27 16:51:34:021
1.713;8.183;3.068;8.428;-3.438;3.654;-2.046;1.877;-2.642;-0.319;0.058;-0.269;81.0;-25.4;-33.7;10.4;157.5;8.4;-77.3;0.0;55.5;39.46897;-0.34101;69.4;NaN;;14.41;;0 / 28;9487;2021-10-27 16:51:34:072
3.827;11.092;-0.169;8.327;-5.042;1.178;-4.384;2.694;-0.422;-0.323;-0.169;-0.039;81.0;-24.2;-33.0;13.6;157.4;29.3;-79.1;0.0;55.5;39.46897;-0.34101;69.4;NaN;;14.41;;0 / 28;9538;2021-10-27 16:51:34:123
1.869;10.958;-1.967;9.625;-1.633;-0.934;-2.146;-3.313;4.068;-0.067;-1.431;1.007;81.0;-23.6;-32.2;16.7;160.8;16.6;-93.6;0.0;55.5;39.46897;-0.34101;69.4;NaN;;14.41;;0 / 28;9587;2021-10-27 16:51:34:172
1.567;7.932;-1.084;9.505;-2.03;-1.322;-0.996;1.35;1.72;0.178;-1.534;1.032;81.0;-22.9;-31.0;21.0;153.7;11.9;-97.9;0.0;55.5;39.46897;-0.34101;69.4;NaN;;14.41;;0 / 28;9637;2021-10-27 16:51:34:222
1.122;7.468;-4.208;8.768;-0.68;-4.343;0.633;1.771;2.557;1.089;-0.403;0.409;81.0;-22.3;-30.2;23.5;161.3;4.0;-116.4;0.0;50.58;39.46897;-0.34101;69.4;NaN;;14.41;;0 / 28;9687;2021-10-27 16:51:34:272
1.67;5.644;-2.307;8.935;-2.49;-3.184;-0.132;4.713;1.478;1.325;-0.236;0.169;81.0;-21.4;-28.8;26.0;160.3;12.1;-116.7;0.0;50.58;39.46897;-0.34101;69.4;NaN;;14.41;;0 / 28;9737;2021-10-27 16:51:34:322
-0.251;5.232;-3.329;8.25;0.56;-5.267;1.435;4.811;1.982;1.608;0.122;-0.064;81.0;-21.1;-28.3;26.9;155.0;8.3;-114.6;0.0;50.58;39.46897;-0.34101;69.4;NaN;;14.41;;0 / 28;9787;2021-10-27 16:51:34:372
-0.174;8.191;-4.291;8.681;0.192;-4.554;1.535;2.024;2.262;1.646;0.318;-0.326;17.0;-19.9;-27.9;28.3;152.4;-0.9;-119.8;0.0;50.58;39.46897;-0.34101;69.4;NaN;;14.41;;0 / 28;9837;2021-10-27 16:51:34:422
-1.63;9.672;-5.435;8.48;1.149;-4.788;2.03;0.022;2.756;1.381;0.254;-0.754;17.0;-19.1;-28.1;28.7;146.9;-4.1;-117.8;0.0;50.58;39.46897;-0.34101;69.4;NaN;;14.41;;0 / 28;9887;2021-10-27 16:51:34:472
-0.694;10.505;-4.985;8.744;0.651;-4.391;1.282;-1.177;1.843;0.952;-0.013;-0.805;17.0;-17.6;-28.8;28.7;143.9;-5.1;-113.8;0.0;50.58;39.46897;-0.34101;69.4;NaN;;14.41;;0 / 28;9937;2021-10-27 16:51:34:522
1.493;8.14;-7.506;7.168;-1.173;-6.589;-0.035;-0.681;3.518;0.795;-0.116;-0.544;17.0;-16.7;-29.7;28.6;146.0;-3.8;-116.7;0.0;50.58;39.46897;-0.34101;69.4;NaN;;14.41;;0 / 28;9987;2021-10-27 16:51:34:572
5.914;13.485;-2.704;8.878;-3.869;-1.566;-5.52;-4.301;-0.72;0.769;-0.165;-0.004;17.0;-15.5;-30.4;28.4;148.6;22.1;-107.6;0.0;60.44;39.46897;-0.34101;69.4;NaN;;14.41;;0 / 28;10036;2021-10-27 16:51:34:621
0.83;7.453;1.888;9.639;-0.57;1.733;-0.542;1.148;-5.281;0.769;-0.165;-0.004;17.0;-14.6;-31.0;28.7;140.6;16.4;-92.7;0.0;60.44;39.46897;-0.34101;69.4;NaN;;14.41;;0 / 28;10087;2021-10-27 16:51:34:672
-1.677;7.484;1.457;9.428;2.155;1.628;2.433;1.825;-4.82;-0.871;-2.216;1.456;17.0;-13.1;-31.8;28.2;139.2;-0.2;-91.5;0.0;60.44;39.46897;-0.34101;69.4;NaN;;14.41;;0 / 28;10137;2021-10-27 16:51:34:722
0.404;10.508;1.953;9.639;-0.34;1.767;0.38;-1.25;-4.778;-1.948;-1.945;0.346;11.0;-11.5;-32.3;28.2;135.0;-12.7;-80.2;0.0;60.44;39.46897;-0.34101;69.4;NaN;;14.41;;0 / 28;10186;2021-10-27 16:51:34:771
-0.033;8.516;-0.076;9.807;0.0;0.0;0.64;1.153;-1.768;-1.634;-1.361;-0.359;11.0;-8.9;-34.0;27.2;141.0;-1.8;-88.2;0.0;60.44;39.46897;-0.34101;69.4;NaN;;14.41;;0 / 28;10237;2021-10-27 16:51:34:822
-0.162;9.141;1.522;9.658;0.469;1.628;0.102;0.472;-2.482;-1.3;-1.282;-0.304;11.0;-7.1;-34.7;26.6;142.2;2.1;-86.9;0.0;60.44;39.46897;-0.34101;69.4;NaN;;14.41;;0 / 28;10287;2021-10-27 16:51:34:872
-1.79;9.007;0.976;9.572;1.834;1.082;1.924;0.8;-1.483;-0.909;-1.198;-0.237;11.0;-4.7;-35.8;25.4;142.1;-9.6;-83.9;0.0;54.75;39.46897;-0.34101;69.4;NaN;;14.41;;0 / 28;10337;2021-10-27 16:51:34:922
-1.383;8.925;0.689;9.658;1.484;0.824;1.162;0.812;-1.304;-0.657;-0.947;-0.393;11.0;-2.9;-36.2;25.1;144.4;-9.6;-81.9;0.0;54.75;39.46897;-0.34101;69.4;NaN;;14.41;;0 / 28;10387;2021-10-27 16:51:34:972
-0.773;8.727;1.376;9.629;0.814;1.671;0.395;1.096;-1.25;-0.487;-0.747;-0.538;11.0;-0.4;-36.7;24.0;147.4;-6.8;-81.9;0.0;54.75;39.46897;-0.34101;69.4;NaN;;14.41;;0 / 28;10436;2021-10-27 16:51:35:021
-1.139;9.742;1.481;9.543;1.322;1.829;-0.025;0.022;-0.83;-0.386;-0.822;-0.455;54.0;0.8;-37.6;23.3;149.4;-2.8;-81.1;0.0;54.75;39.46897;-0.34101;69.4;NaN;;14.41;;0 / 28;10487;2021-10-27 16:51:35:072
-0.636;9.782;1.05;9.735;0.599;1.034;-0.076;-0.182;-0.585;-0.346;-0.967;-0.34;54.0;2.6;-38.4;22.1;150.5;-2.2;-82.8;0.0;54.75;39.46897;-0.34101;69.4;NaN;;14.41;;0 / 28;10537;2021-10-27 16:51:35:122
-1.304;10.74;0.648;9.72;1.159;0.579;0.684;-0.869;-0.418;-0.259;-1.1;-0.184;54.0;3.2;-39.2;20.9;152.5;-2.8;-82.1;0.0;54.75;39.46897;-0.34101;69.4;NaN;;14.41;;0 / 28;10586;2021-10-27 16:51:35:171
-1.091;10.457;-0.327;9.74;1.116;-0.33;0.237;-0.746;0.894;-0.078;-0.954;-0.155;54.0;4.1;-39.7;20.4;153.8;-7.3;-87.8;0.0;54.75;39.46897;-0.34101;69.4;NaN;;14.41;;0 / 28;10637;2021-10-27 16:51:35:222
-1.359;13.023;1.821;9.735;0.977;0.704;0.237;-2.248;-0.914;0.051;-0.862;-0.129;54.0;4.4;-39.8;20.1;153.7;-7.2;-88.8;0.0;58.4;39.46897;-0.34101;69.4;NaN;;14.41;;0 / 28;10687;2021-10-27 16:51:35:272
-0.682;10.182;2.994;9.51;0.589;2.318;0.063;-2.25;-1.939;0.126;-0.731;-0.155;54.0;5.0;-39.4;19.9;154.5;-7.2;-84.0;0.0;58.4;39.46897;-0.34101;69.4;NaN;;14.41;;0 / 28;10737;2021-10-27 16:51:35:322
4.598;7.688;3.037;8.159;-3.591;4.08;-2.265;0.551;-2.929;0.126;-0.731;-0.155;54.0;5.6;-39.0;20.1;155.7;1.7;-72.0;0.0;58.4;39.46897;-0.34101;69.4;NaN;;14.41;;0 / 28;10787;2021-10-27 16:51:35:372
-0.677;14.931;-2.144;9.692;-1.068;-1.034;-2.61;-1.279;2.134;0.126;-0.731;-0.155;97.0;6.4;-37.6;22.7;147.8;6.3;-96.1;0.0;58.4;39.46897;-0.34101;69.4;NaN;;14.41;;0 / 28;10837;2021-10-27 16:51:35:422
1.565;8.296;0.71;9.701;-1.202;0.814;-0.936;0.457;0.606;-0.026;-1.81;0.547;97.0;7.0;-35.5;25.8;143.7;1.9;-92.9;0.0;58.4;39.46897;-0.34101;69.4;NaN;;14.41;;0 / 28;10887;2021-10-27 16:51:35:472
0.868;7.793;-3.319;8.595;-1.025;-4.616;-0.536;1.956;4.623;0.903;-1.825;0.499;97.0;7.3;-31.9;30.5;137.5;8.5;-101.6;0.0;58.4;39.46897;-0.34101;69.4;NaN;;14.41;;0 / 28;10937;2021-10-27 16:51:35:522
0.581;6.683;-1.845;9.366;-0.733;-2.816;-0.096;2.747;3.09;0.903;-1.825;0.499;97.0;7.1;-29.2;33.1;134.3;6.0;-118.2;0.0;54.29;39.46897;-0.34101;69.4;NaN;;14.41;;0 / 28;10987;2021-10-27 16:51:35:572
0.521;4.856;-2.759;8.619;-1.034;-4.563;-0.201;4.406;1.597;1.286;-1.137;0.425;97.0;7.1;-25.9;35.6;127.6;6.1;-117.9;0.0;54.29;39.46897;-0.34101;69.4;NaN;;14.41;;0 / 28;11037;2021-10-27 16:51:35:622
-0.394;6.295;-5.445;7.278;0.656;-6.541;1.283;4.416;3.91;1.965;-1.028;0.236;97.0;7.0;-24.1;37.1;125.6;-3.9;-134.1;0.0;54.29;39.46897;-0.34101;69.4;NaN;;14.41;;0 / 28;11087;2021-10-27 16:51:35:672
-1.029;7.355;-5.136;8.001;1.125;-5.559;1.689;2.209;2.878;1.76;-0.264;-0.25;97.0;7.3;-22.6;38.0;122.1;-4.9;-128.5;0.0;54.29;39.46897;-0.34101;69.4;NaN;;14.41;;0 / 28;11137;2021-10-27 16:51:35:722
1.974;8.126;-4.588;8.389;-1.935;-4.693;-0.61;1.538;1.359;1.76;-0.053;-0.471;37.0;7.1;-22.9;38.1;120.8;-6.6;-124.8;0.0;54.29;39.46897;-0.34101;69.4;NaN;;14.41;;0 / 28;11187;2021-10-27 16:51:35:772
0.978;13.014;-4.547;9.232;-0.627;-3.256;-0.633;-3.707;0.854;0.789;-0.057;0.052;37.0;7.3;-24.5;36.7;123.4;5.6;-110.0;0.0;54.29;39.46897;-0.34101;69.4;NaN;;14.41;;0 / 28;11237;2021-10-27 16:51:35:822
1.225;9.842;-7.982;7.681;-0.967;-6.024;-0.445;-0.074;3.923;0.554;-0.154;0.252;37.0;7.4;-25.7;36.0;130.6;4.4;-130.5;0.0;54.29;39.46897;-0.34101;69.4;NaN;;14.41;;0 / 28;11287;2021-10-27 16:51:35:872
2.958;12.174;-3.463;9.39;-2.294;-1.657;-2.378;-3.555;-0.898;0.181;-0.252;0.553;37.0;7.7;-26.8;34.5;129.4;6.9;-122.3;0.0;61.76;39.46897;-0.34101;69.4;NaN;;14.41;;0 / 28;11336;2021-10-27 16:51:35:921
-0.557;6.221;-1.646;9.275;1.298;-2.916;0.523;1.802;-3.504;-0.124;-0.089;0.438;37.0;8.5;-27.2;33.9;126.5;13.5;-100.0;0.0;61.76;39.46897;-0.34101;69.4;NaN;;14.41;;0 / 28;11387;2021-10-27 16:51:35:972
-0.691;6.759;1.0;9.615;1.034;1.638;1.87;3.585;-5.772;-0.124;-0.089;0.438;37.0;10.1;-28.2;32.6;133.7;-6.1;-80.3;0.0;61.76;39.46897;-0.34101;69.4;NaN;;14.41;;0 / 28;11437;2021-10-27 16:51:36:022
0.129;10.503;0.816;9.792;0.038;0.57;0.33;-1.617;-4.518;-0.124;-0.089;0.438;5.0;11.5;-29.2;31.4;134.5;1.5;-81.5;0.0;61.76;39.46897;-0.34101;69.4;NaN;;14.41;;0 / 28;11487;2021-10-27 16:51:36:072
0.155;8.617;0.976;9.768;-0.397;0.79;0.367;0.885;-2.939;-0.124;-0.089;0.438;5.0;13.0;-31.0;28.7;135.9;-3.8;-88.9;0.0;61.76;39.46897;-0.34101;69.4;NaN;;14.41;;0 / 28;11537;2021-10-27 16:51:36:122
-1.517;9.055;0.21;9.649;1.729;0.335;1.272;0.355;-1.737;-1.301;0.085;-0.34;5.0;14.2;-31.9;26.5;139.5;2.3;-85.4;0.0;61.76;39.46897;-0.34101;69.4;NaN;;14.41;;0 / 28;11587;2021-10-27 16:51:36:172
-1.663;8.813;1.239;9.653;1.441;0.977;2.095;0.933;-2.59;-1.044;-0.08;-0.368;5.0;15.5;-32.8;23.9;147.8;-8.4;-84.2;0.0;52.16;39.46897;-0.34101;69.4;NaN;;14.41;;0 / 28;11636;2021-10-27 16:51:36:221
-0.308;9.057;0.04;9.802;0.34;0.057;0.446;0.678;-0.588;-0.724;-0.22;-0.464;5.0;16.3;-33.5;22.4;146.9;-2.7;-89.9;0.0;52.16;39.46897;-0.34101;69.4;NaN;;14.41;;0 / 28;11687;2021-10-27 16:51:36:272
-0.397;8.552;-0.21;9.797;0.441;-0.124;0.1;1.287;0.007;-0.52;-0.345;-0.448;5.0;16.3;-34.6;21.0;148.1;-1.8;-91.7;0.0;52.16;39.46897;-0.34101;69.4;NaN;;14.41;;0 / 28;11736;2021-10-27 16:51:36:321
-0.162;9.141;1.273;9.725;0.144;1.269;-0.284;0.441;-1.464;-0.257;-0.614;-0.273;5.0;16.6;-35.2;19.9;152.5;-3.6;-85.7;0.0;52.16;39.46897;-0.34101;69.4;NaN;;14.41;;0 / 28;11787;2021-10-27 16:51:36:372
-0.433;10.656;1.093;9.754;0.187;1.015;-0.675;-0.364;-0.434;-0.189;-0.854;-0.012;91.0;16.4;-36.1;17.9;155.9;-1.1;-84.1;0.0;52.16;39.46897;-0.34101;69.4;NaN;;14.41;;0 / 28;11837;2021-10-27 16:51:36:422
-0.835;10.855;1.048;9.749;0.608;0.867;0.258;-0.908;-0.865;-0.316;-0.798;0.057;91.0;16.4;-36.5;16.4;158.8;-3.9;-84.6;0.0;52.16;39.46897;-0.34101;69.4;NaN;;14.41;;0 / 28;11886;2021-10-27 16:51:36:471
-1.644;10.417;0.734;9.649;1.556;0.833;1.212;-0.544;-0.335;-0.279;-0.695;-0.016;91.0;16.1;-37.5;14.3;160.6;-5.4;-84.9;0.0;52.16;39.46897;-0.34101;69.4;NaN;;14.41;;0 / 28;11937;2021-10-27 16:51:36:522
-2.02;11.321;2.13;9.519;1.767;1.547;1.93;-1.875;-0.99;-0.311;-0.224;-0.328;91.0;16.4;-38.2;13.4;162.6;-9.1;-85.1;0.0;57.69;39.46897;-0.34101;69.4;NaN;;14.41;;0 / 28;11986;2021-10-27 16:51:36:571
1.955;10.369;1.811;9.275;-2.251;2.251;-2.795;-0.396;-1.374;-0.304;-0.208;-0.298;91.0;16.3;-38.5;13.6;161.9;7.0;-83.1;0.0;57.69;39.46897;-0.34101;69.4;NaN;;14.41;;0 / 28;12037;2021-10-27 16:51:36:622
4.033;7.676;1.531;8.672;-4.511;0.8;-4.507;2.141;-1.077;-0.456;-0.502;0.054;91.0;16.0;-38.5;14.9;163.2;22.3;-69.1;0.0;57.69;39.46897;-0.34101;69.4;NaN;;14.41;;0 / 28;12086;2021-10-27 16:51:36:671
0.007;13.571;-1.417;9.744;0.077;-1.12;0.016;-3.882;2.593;-0.456;-0.502;0.054;91.0;16.1;-37.0;18.5;150.3;23.0;-87.4;0.0;57.69;39.46897;-0.34101;69.4;NaN;;14.41;;0 / 28;12137;2021-10-27 16:51:36:722
1.06;8.696;-0.165;9.74;-1.154;-0.163;0.107;-2.258;2.869;0.198;-1.511;0.807;131.0;16.6;-35.5;21.2;148.7;0.5;-97.2;0.0;57.69;39.46897;-0.34101;69.4;NaN;;14.41;;0 / 28;12187;2021-10-27 16:51:36:772
0.215;7.805;-3.403;8.82;-0.268;-4.276;0.214;1.767;3.502;1.012;-1.116;0.322;131.0;16.3;-32.5;25.4;139.8;9.5;-102.6;0.0;57.69;39.46897;-0.34101;69.4;NaN;;14.41;;0 / 28;12237;2021-10-27 16:51:36:822
1.278;6.429;-2.199;9.031;-1.484;-3.534;-0.384;2.781;2.97;1.302;-0.808;0.044;131.0;16.1;-30.4;27.8;134.5;4.2;-114.0;0.0;55.05;39.46897;-0.34101;69.4;NaN;;14.41;;0 / 28;12286;2021-10-27 16:51:36:871
1.194;5.857;-2.034;9.127;-1.441;-3.285;-0.235;3.933;1.228;1.302;-0.751;0.352;131.0;14.9;-28.6;30.8;128.7;12.4;-107.8;0.0;55.05;39.46897;-0.34101;69.4;NaN;;14.41;;0 / 28;12337;2021-10-27 16:51:36:922
0.011;7.312;-3.073;9.031;-0.244;-3.821;0.723;3.023;1.622;1.299;-0.338;0.209;131.0;15.4;-27.4;32.0;127.4;1.8;-114.3;0.0;55.05;39.46897;-0.34101;69.4;NaN;;14.41;;0 / 28;12386;2021-10-27 16:51:36:971
-0.04;8.083;-3.705;8.887;0.014;-4.152;1.02;1.516;1.517;1.101;0.032;0.068;131.0;14.9;-27.2;32.6;127.4;-0.4;-112.4;0.0;55.05;39.46897;-0.34101;69.4;NaN;;14.41;;0 / 28;12437;2021-10-27 16:51:37:022
0.885;8.88;-2.989;9.165;-0.953;-3.361;0.111;1.286;1.053;0.936;0.394;-0.375;13.0;15.1;-27.6;32.1;127.4;1.8;-115.7;0.0;55.05;39.46897;-0.34101;69.4;NaN;;14.41;;0 / 28;12487;2021-10-27 16:51:37:072
0.303;11.455;-3.698;9.299;-0.11;-3.117;0.152;-0.872;0.715;0.684;0.517;-0.408;13.0;15.1;-28.8;31.4;130.3;0.6;-108.5;0.0;55.05;39.46897;-0.34101;69.4;NaN;;14.41;;0 / 28;12537;2021-10-27 16:51:37:122
0.277;9.138;-5.787;8.121;-0.163;-5.492;0.169;-1.823;2.308;0.463;0.401;-0.284;13.0;15.5;-29.6;30.8;130.7;2.3;-112.2;0.0;55.05;39.46897;-0.34101;69.4;NaN;;14.41;;0 / 28;12586;2021-10-27 16:51:37:171
-0.251;9.9;-6.067;8.442;0.124;-4.99;0.609;0.657;3.872;0.523;0.131;-0.175;13.0;16.0;-30.5;30.2;131.9;-1.5;-130.7;0.0;59.14;39.46897;-0.34101;69.4;NaN;;14.41;;0 / 28;12636;2021-10-27 16:51:37:221
2.664;14.778;-1.172;9.615;-1.844;-0.618;-1.452;-5.304;-1.298;0.331;-0.014;-0.094;13.0;16.4;-31.0;29.8;132.6;2.8;-107.0;0.0;59.14;39.46897;-0.34101;69.4;NaN;;14.41;;0 / 28;12687;2021-10-27 16:51:37:272
0.375;3.935;-0.816;9.701;-0.69;-1.279;-0.395;4.097;-1.481;0.331;-0.014;-0.094;13.0;17.3;-31.3;29.6;133.2;4.0;-97.5;0.0;59.14;39.46897;-0.34101;69.4;NaN;;14.41;;0 / 28;12737;2021-10-27 16:51:37:322
0.694;9.093;-0.009;9.787;-0.575;0.086;-0.148;0.627;-3.126;0.331;-0.014;-0.094;13.0;18.1;-31.6;29.0;137.4;5.2;-86.1;0.0;59.14;39.46897;-0.34101;69.4;NaN;;14.41;;0 / 28;12787;2021-10-27 16:51:37:372
-0.921;10.211;-0.438;9.744;0.919;-0.589;1.517;-0.989;-2.095;0.331;-0.014;-0.094;16.0;19.3;-32.5;27.5;141.9;-1.9;-83.5;0.0;59.14;39.46897;-0.34101;69.4;NaN;;14.41;;0 / 28;12836;2021-10-27 16:51:37:421
-0.543;8.26;0.801;9.768;0.704;0.474;1.39;1.623;-1.863;-1.214;0.846;-0.575;16.0;19.7;-33.4;26.1;140.8;-5.4;-93.5;0.0;59.14;39.46897;-0.34101;69.4;NaN;;14.41;;0 / 28;12887;2021-10-27 16:51:37:472
-0.701;9.057;-0.653;9.773;0.369;0.728;0.074;-0.439;-3.524;-1.248;0.793;-0.548;16.0;20.8;-34.8;23.8;148.0;-2.2;-85.7;0.0;56.08;39.46897;-0.34101;69.4;NaN;;14.41;;0 / 28;12937;2021-10-27 16:51:37:522
-0.569;8.796;-0.684;9.768;0.508;-0.733;0.983;1.371;0.239;-0.564;0.154;-0.455;16.0;21.8;-35.8;22.2;146.6;-5.2;-97.9;0.0;56.08;39.46897;-0.34101;69.4;NaN;;14.41;;0 / 28;12987;2021-10-27 16:51:37:572
-0.368;9.789;0.265;9.792;0.512;0.196;0.265;-0.266;-1.114;-0.467;-0.088;-0.342;16.0;22.7;-37.0;20.0;152.6;-3.7;-87.2;0.0;56.08;39.46897;-0.34101;69.4;NaN;;14.41;;0 / 28;13036;2021-10-27 16:51:37:621
-0.002;9.189;-0.531;9.787;0.0;-0.603;0.397;0.818;-0.46;-0.347;-0.396;-0.223;16.0;23.0;-37.7;18.4;153.9;-3.6;-89.4;0.0;56.08;39.46897;-0.34101;69.4;NaN;;14.41;;0 / 28;13087;2021-10-27 16:51:37:672
-0.244;9.079;0.047;9.802;0.249;0.163;-0.379;0.522;0.342;-0.172;-0.698;-0.137;16.0;23.3;-37.9;16.5;154.2;0.1;-93.4;0.0;56.08;39.46897;-0.34101;69.4;NaN;;14.41;;0 / 28;13137;2021-10-27 16:51:37:722
-2.07;9.483;0.426;9.582;2.049;0.445;1.564;0.877;-0.568;-0.13;-0.815;-0.105;77.0;24.2;-37.9;14.9;161.0;-10.6;-88.6;0.0;56.08;39.46897;-0.34101;69.4;NaN;;14.41;;0 / 28;13187;2021-10-27 16:51:37:772
-1.785;9.629;-0.596;9.629;1.748;-0.584;1.456;0.359;0.308;-0.023;-0.83;-0.261;77.0;25.0;-38.2;13.0;160.5;-10.0;-91.7;0.0;56.08;39.46897;-0.34101;69.4;NaN;;14.41;;0 / 28;13237;2021-10-27 16:51:37:822
-0.509;12.908;1.333;9.673;0.532;1.513;-0.073;-0.833;-2.383;-0.179;-0.59;-0.38;77.0;25.6;-38.6;11.9;164.4;-4.3;-88.6;0.0;60.48;39.46897;-0.34101;69.4;NaN;;14.41;;0 / 28;13286;2021-10-27 16:51:37:871
2.786;13.722;2.065;9.534;-1.896;1.307;-2.647;-5.645;-2.338;-0.356;-0.698;-0.106;77.0;26.8;-38.4;10.4;168.9;11.1;-82.2;0.0;60.48;39.46897;-0.34101;69.4;NaN;;14.41;;0 / 28;13337;2021-10-27 16:51:37:922
-0.677;8.631;0.56;9.735;0.488;1.101;-0.201;-0.218;-1.203;-0.395;-0.889;0.156;77.0;27.4;-37.6;10.8;166.8;-0.1;-85.6;0.0;60.48;39.46897;-0.34101;69.4;NaN;;14.41;;0 / 28;13387;2021-10-27 16:51:37:972
1.448;7.353;0.349;9.596;-2.03;-0.053;-0.899;2.724;-0.018;-0.395;-0.889;0.156;77.0;28.4;-35.8;11.9;163.1;-4.3;-89.0;0.0;60.48;39.46897;-0.34101;69.4;NaN;;14.41;;0 / 28;13437;2021-10-27 16:51:38:022
-0.473;9.344;-3.676;9.117;0.57;-3.572;-0.175;-0.102;4.489;-0.395;-0.889;0.156;121.0;28.4;-34.7;14.2;146.6;11.3;-104.5;0.0;60.48;39.46897;-0.34101;69.4;NaN;;14.41;;0 / 28;13487;2021-10-27 16:51:38:072
1.369;7.81;-2.913;9.088;-1.571;-3.333;-0.689;1.852;3.007;1.152;-2.074;0.557;121.0;28.4;-33.8;16.4;140.8;9.2;-110.1;0.0;60.48;39.46897;-0.34101;69.4;NaN;;14.41;;0 / 28;13537;2021-10-27 16:51:38:122
0.213;7.654;-2.994;9.203;-0.532;-3.347;-0.217;1.912;2.0;1.238;-1.732;0.618;121.0;28.1;-33.8;17.6;140.5;6.1;-108.7;0.0;58.81;39.46897;-0.34101;69.4;NaN;;14.41;;0 / 28;13586;2021-10-27 16:51:38:171
0.569;6.709;-4.2;8.495;-0.469;-4.879;0.298;2.482;2.291;1.221;-1.289;0.402;121.0;26.9;-33.9;18.7;140.6;1.0;-111.7;0.0;58.81;39.46897;-0.34101;69.4;NaN;;14.41;;0 / 28;13636;2021-10-27 16:51:38:221
0.512;7.434;-4.397;8.222;-0.761;-5.291;-0.021;2.675;2.602;1.225;-1.086;0.434;121.0;26.5;-34.0;18.8;137.1;3.7;-124.0;0.0;58.81;39.46897;-0.34101;69.4;NaN;;14.41;;0 / 28;13687;2021-10-27 16:51:38:272
0.794;7.475;-5.072;8.203;-0.962;-5.286;0.019;1.958;2.314;1.206;-1.108;0.408;121.0;25.7;-34.5;18.5;138.2;4.2;-124.4;0.0;58.81;39.46897;-0.34101;69.4;NaN;;14.41;;0 / 28;13737;2021-10-27 16:51:38:322
1.098;8.475;-4.191;8.839;-1.116;-4.094;-0.375;0.881;1.139;1.135;-1.102;0.474;121.0;25.9;-35.1;17.4;140.6;7.0;-117.3;0.0;58.81;39.46897;-0.34101;69.4;NaN;;14.41;;0 / 28;13787;2021-10-27 16:51:38:372
0.356;9.359;-5.821;8.332;-0.33;-5.162;0.509;-0.289;2.14;0.697;-0.682;0.299;20.0;25.6;-35.8;15.5;143.4;5.3;-115.0;0.0;58.81;39.46897;-0.34101;69.4;NaN;;14.41;;0 / 28;13837;2021-10-27 16:51:38:422
2.934;8.236;-5.285;7.805;-2.83;-5.224;-1.738;0.182;1.373;0.551;-0.695;0.35;20.0;25.3;-36.4;14.2;143.3;1.9;-121.8;0.0;58.81;39.46897;-0.34101;69.4;NaN;;14.41;;0 / 28;13887;2021-10-27 16:51:38:472
3.305;9.792;-5.361;7.887;-2.883;-5.066;-1.592;1.55;1.044;0.371;-0.682;0.705;20.0;24.7;-36.4;13.0;141.1;17.1;-122.7;0.0;57.71;39.46897;-0.34101;69.4;NaN;;14.41;;0 / 28;13937;2021-10-27 16:51:38:522
4.523;13.193;-3.98;8.983;-3.045;-2.5;-3.233;-4.002;-0.286;0.122;-0.321;0.874;20.0;23.6;-36.7;12.3;146.2;18.4;-110.3;0.0;57.71;39.46897;-0.34101;69.4;NaN;;14.41;;0 / 28;13987;2021-10-27 16:51:38:572
-0.282;4.519;-3.049;9.007;-0.713;-3.812;0.229;-4.001;-1.634;-0.316;0.128;0.604;20.0;23.8;-36.4;11.0;155.4;5.4;-101.3;0.0;57.71;39.46897;-0.34101;69.4;NaN;;14.41;;0 / 28;14036;2021-10-27 16:51:38:621
1.079;6.852;0.679;9.543;-1.781;1.374;0.591;3.075;-4.744;-0.316;0.128;0.604;20.0;23.9;-36.4;10.0;151.0;-3.4;-118.1;0.0;57.71;39.46897;-0.34101;69.4;NaN;;14.41;;0 / 28;14087;2021-10-27 16:51:38:672
-0.77;11.166;-0.011;9.778;0.737;-0.024;2.475;-2.058;-3.213;-1.104;0.941;-0.403;20.0;24.5;-35.8;6.8;170.3;-2.7;-88.6;0.0;57.71;39.46897;-0.34101;69.4;NaN;;14.41;;0 / 28;14137;2021-10-27 16:51:38:722
-0.411;8.602;2.388;9.409;0.532;2.72;1.913;0.693;-5.079;-1.104;0.941;-0.403;0.0;24.5;-35.4;4.3;182.8;-6.3;-76.3;0.0;57.71;39.46897;-0.34101;69.4;NaN;;14.41;;0 / 28;14187;2021-10-27 16:51:38:772
-1.146;10.156;0.33;9.749;1.058;0.211;2.212;-0.559;-2.004;-1.834;1.805;-0.932;0.0;23.9;-34.4;-0.4;184.7;-4.5;-80.4;0.0;53.1;39.46897;-0.34101;69.4;NaN;;14.41;;0 / 28;14237;2021-10-27 16:51:38:822
-1.29;8.945;-0.126;9.716;1.312;-0.206;2.28;0.954;-0.574;-1.178;0.352;-0.893;0.0;23.5;-34.0;-3.1;181.8;-7.3;-92.0;0.0;53.1;39.46897;-0.34101;69.4;NaN;;14.41;;0 / 28;14286;2021-10-27 16:51:38:871
-1.177;9.519;-0.26;9.73;1.221;-0.22;1.552;0.297;-0.224;-1.047;0.013;-0.87;0.0;23.2;-33.1;-7.2;191.7;-6.9;-89.2;0.0;53.1;39.46897;-0.34101;69.4;NaN;;14.41;;0 / 28;14337;2021-10-27 16:51:38:922
-1.189;9.088;-0.56;9.711;1.259;-0.527;1.086;0.699;0.324;-0.148;-1.967;-0.697;0.0;22.6;-32.8;-9.5;194.4;-8.0;-92.0;0.0;53.1;39.46897;-0.34101;69.4;NaN;;14.41;;0 / 28;14387;2021-10-27 16:51:38:972
-1.029;8.777;-0.222;9.725;1.235;-0.316;0.838;0.967;0.138;0.08;-2.417;-0.531;0.0;21.7;-31.7;-12.4;197.0;-7.5;-93.5;0.0;53.1;39.46897;-0.34101;69.4;NaN;;14.41;;0 / 28;14437;2021-10-27 16:51:39:022
-0.126;9.517;0.122;9.792;0.292;0.445;-0.208;0.285;-1.117;0.128;-2.456;-0.341;39.0;21.1;-31.4;-13.6;201.3;-6.5;-89.2;0.0;53.1;39.46897;-0.34101;69.4;NaN;;14.41;;0 / 28;14487;2021-10-27 16:51:39:072
0.564;9.265;0.99;9.73;-0.551;1.116;-0.891;0.96;-0.936;0.05;-2.195;-0.129;39.0;20.2;-30.3;-15.3;210.7;3.2;-83.5;0.0;53.1;39.46897;-0.34101;69.4;NaN;;14.41;;0 / 28;14537;2021-10-27 16:51:39:122
-0.315;10.134;1.761;9.711;0.254;1.336;-0.342;-0.243;-1.912;-0.355;-1.411;0.183;39.0;19.4;-29.8;-16.5;211.9;-1.9;-80.1;0.0;58.42;39.46897;-0.34101;69.4;NaN;;14.41;;0 / 28;14587;2021-10-27 16:51:39:172
-0.742;10.613;0.404;9.773;0.675;0.441;0.711;-0.605;-0.285;-0.368;-1.31;0.182;39.0;17.6;-28.6;-18.6;210.9;-7.2;-88.3;0.0;58.42;39.46897;-0.34101;69.4;NaN;;14.41;;0 / 28;14637;2021-10-27 16:51:39:222
-2.321;11.81;1.206;9.582;1.772;1.111;1.648;-1.928;-0.985;-0.268;-1.571;-0.183;39.0;16.3;-28.1;-20.6;214.7;-9.0;-86.9;0.0;58.42;39.46897;-0.34101;69.4;NaN;;14.41;;0 / 28;14687;2021-10-27 16:51:39:272
-0.129;11.511;1.091;9.778;-0.532;0.541;-1.122;-0.963;-0.246;-0.268;-1.571;-0.183;39.0;13.7;-27.4;-22.7;221.7;0.1;-85.2;0.0;58.42;39.46897;-0.34101;69.4;NaN;;14.41;;0 / 28;14737;2021-10-27 16:51:39:322
1.4;9.667;2.814;9.012;-1.911;3.366;-2.254;0.2;-2.509;-0.268;-1.571;-0.183;39.0;12.4;-27.7;-23.2;223.1;7.5;-75.3;0.0;58.42;39.46897;-0.34101;69.4;NaN;;14.41;;0 / 28;14787;2021-10-27 16:51:39:372
3.264;7.669;1.378;8.969;-3.922;0.584;-4.354;1.26;-0.153;-0.493;-1.058;0.457;94.0;10.6;-29.2;-22.3;224.6;17.1;-75.4;0.0;58.42;39.46897;-0.34101;69.4;NaN;;14.41;;0 / 28;14837;2021-10-27 16:51:39:422
1.034;12.382;-1.357;9.668;-1.604;-0.383;-2.092;-2.978;1.485;-0.381;-0.664;1.11;94.0;9.4;-31.3;-20.5;223.2;23.6;-86.3;0.0;55.44;39.46897;-0.34101;69.4;NaN;;14.41;;0 / 28;14887;2021-10-27 16:51:39:472
0.418;8.7;-2.46;9.448;-0.441;-2.595;0.328;0.391;3.354;0.102;-0.979;0.877;94.0;7.7;-34.6;-16.6;202.5;2.6;-105.4;0.0;55.44;39.46897;-0.34101;69.4;NaN;;14.41;;0 / 28;14937;2021-10-27 16:51:39:522
1.103;7.425;-2.625;9.16;-1.47;-3.179;0.252;1.717;3.65;0.938;-1.494;0.46;94.0;6.8;-36.8;-14.1;196.5;4.3;-110.3;0.0;55.44;39.46897;-0.34101;69.4;NaN;;14.41;;0 / 28;14986;2021-10-27 16:51:39:571
1.127;6.627;-3.25;8.744;-1.776;-4.07;-0.453;3.034;2.568;1.294;-1.465;0.307;94.0;5.5;-38.8;-11.0;195.9;15.9;-107.2;0.0;55.44;39.46897;-0.34101;69.4;NaN;;14.41;;0 / 28;15037;2021-10-27 16:51:39:622
0.258;6.323;-4.504;8.006;-0.326;-5.655;0.921;3.353;3.557;1.486;-1.239;0.402;94.0;4.6;-39.9;-9.8;189.3;5.4;-119.6;0.0;55.44;39.46897;-0.34101;69.4;NaN;;14.41;;0 / 28;15087;2021-10-27 16:51:39:672
0.555;6.706;-4.842;7.992;-0.742;-5.641;0.827;2.856;3.058;1.434;-1.135;0.375;94.0;3.2;-40.3;-8.2;186.7;1.6;-126.3;0.0;55.44;39.46897;-0.34101;69.4;NaN;;14.41;;0 / 28;15137;2021-10-27 16:51:39:722
1.776;6.845;-4.107;8.37;-2.069;-4.678;-0.327;2.61;1.961;1.565;-1.399;0.351;4.0;2.5;-40.2;-8.2;188.4;11.3;-123.0;0.0;55.44;39.46897;-0.34101;69.4;NaN;;14.41;;0 / 28;15187;2021-10-27 16:51:39:772
2.005;8.164;-3.521;8.988;-1.949;-3.409;-0.737;0.497;0.218;1.31;-1.291;0.362;4.0;1.1;-39.8;-9.1;190.7;12.4;-116.7;0.0;58.75;39.46897;-0.34101;69.4;NaN;;14.41;;0 / 28;15237;2021-10-27 16:51:39:822
1.204;10.689;-6.407;8.667;-1.034;-4.472;0.073;-1.625;1.454;0.526;-0.598;0.403;4.0;0.5;-39.7;-9.9;193.0;8.9;-110.8;0.0;58.75;39.46897;-0.34101;69.4;NaN;;14.41;;0 / 28;15287;2021-10-27 16:51:39:872
1.744;8.26;-6.319;7.748;-1.566;-5.808;-0.229;0.076;2.564;0.403;-0.674;0.371;4.0;-0.4;-39.6;-11.4;193.1;7.1;-124.8;0.0;58.75;39.46897;-0.34101;69.4;NaN;;14.41;;0 / 28;15337;2021-10-27 16:51:39:922
2.489;9.739;-6.74;7.566;-1.844;-5.962;-0.72;1.072;2.673;0.403;-0.674;0.371;4.0;-0.8;-39.3;-11.8;194.3;10.7;-133.6;0.0;58.75;39.46897;-0.34101;69.4;NaN;;14.41;;0 / 28;15386;2021-10-27 16:51:39:971
4.799;14.819;-2.556;9.29;-2.82;-1.403;-3.429;-6.065;-1.501;0.403;-0.674;0.371;4.0;-1.4;-39.1;-12.4;196.8;16.5;-120.7;0.0;58.75;39.46897;-0.34101;69.4;NaN;;14.41;;0 / 28;15437;2021-10-27 16:51:40:022
0.134;5.799;-1.8;9.735;-1.188;0.23;0.688;0.537;-4.429;0.403;-0.674;0.371;4.0;-2.0;-38.8;-12.7;198.0;16.7;-98.6;0.0;58.75;39.46897;-0.34101;69.4;NaN;;14.41;;0 / 28;15486;2021-10-27 16:51:40:071
0.5;6.876;1.962;9.347;-0.608;2.897;1.228;1.641;-5.896;-1.2;0.072;0.048;0.0;-2.9;-38.4;-13.5;198.9;0.8;-77.4;0.0;53.72;39.46897;-0.34101;69.4;NaN;;14.41;;0 / 28;15537;2021-10-27 16:51:40:122
0.229;10.62;0.035;9.807;-0.053;-0.153;1.193;-1.853;-4.35;-1.991;-0.348;-0.237;0.0;-4.1;-37.3;-14.2;199.0;3.4;-78.1;0.0;53.72;39.46897;-0.34101;69.4;NaN;;14.41;;0 / 28;15586;2021-10-27 16:51:40:171
0.593;8.092;1.129;9.72;-0.527;1.197;0.972;1.466;-3.111;-1.784;-2.519;-0.412;0.0;-5.9;-36.0;-15.3;203.0;-5.4;-90.5;0.0;53.72;39.46897;-0.34101;69.4;NaN;;14.41;;0 / 28;15637;2021-10-27 16:51:40:222
-0.509;9.624;0.847;9.759;0.33;0.919;0.979;0.177;-2.997;-1.739;-2.417;-0.304;0.0;-7.3;-35.0;-16.6;202.3;4.0;-80.5;0.0;53.72;39.46897;-0.34101;69.4;NaN;;14.41;;0 / 28;15687;2021-10-27 16:51:40:272
-1.464;9.069;0.612;9.725;1.211;0.311;1.805;0.646;-1.548;-1.049;-2.501;-0.396;0.0;-9.1;-33.7;-17.8;208.3;-8.8;-85.6;0.0;53.72;39.46897;-0.34101;69.4;NaN;;14.41;;0 / 28;15736;2021-10-27 16:51:40:321
-1.941;8.889;-0.004;9.591;2.04;-0.057;2.097;0.83;-0.643;-0.798;-2.464;-0.466;0.0;-10.4;-32.9;-18.3;211.0;-12.3;-90.5;0.0;53.72;39.46897;-0.34101;69.4;NaN;;14.41;;0 / 28;15787;2021-10-27 16:51:40:372
-1.077;8.748;0.088;9.74;1.116;0.153;0.843;1.007;-0.45;-0.264;-2.19;-0.637;38.0;-12.2;-31.6;-18.1;211.8;-11.0;-90.3;0.0;53.72;39.46897;-0.34101;69.4;NaN;;14.41;;0 / 28;15837;2021-10-27 16:51:40:422
-0.761;8.933;0.9;9.735;0.742;0.948;0.01;1.164;-1.502;-0.174;-1.876;-0.52;38.0;-13.3;-31.1;-18.2;211.3;-6.5;-89.1;0.0;55.78;39.46897;-0.34101;69.4;NaN;;14.41;;0 / 28;15887;2021-10-27 16:51:40:472
-0.459;9.509;1.098;9.759;0.259;0.943;-0.123;0.389;-1.304;-0.157;-1.556;-0.329;38.0;-14.9;-30.0;-17.9;209.0;-5.2;-81.9;0.0;55.78;39.46897;-0.34101;69.4;NaN;;14.41;;0 / 28;15937;2021-10-27 16:51:40:522
-0.897;10.433;1.187;9.62;0.833;1.719;0.224;-0.282;-1.169;-0.324;-1.422;-0.098;38.0;-16.3;-29.2;-17.9;210.8;-6.1;-83.5;0.0;55.78;39.46897;-0.34101;69.4;NaN;;14.41;;0 / 28;15987;2021-10-27 16:51:40:572
-0.457;11.144;0.655;9.773;0.627;0.532;-0.141;-1.458;-0.353;-0.38;-1.421;-0.06;38.0;-17.9;-28.4;-17.5;209.2;-2.1;-83.1;0.0;55.78;39.46897;-0.34101;69.4;NaN;;14.41;;0 / 28;16037;2021-10-27 16:51:40:622
-0.981;10.474;-0.706;9.735;0.977;-0.666;0.486;-1.025;0.204;-0.38;-1.421;-0.06;38.0;-19.3;-27.9;-16.8;210.9;-3.7;-86.9;0.0;55.78;39.46897;-0.34101;69.4;NaN;;14.41;;0 / 28;16087;2021-10-27 16:51:40:672
-2.427;12.501;0.466;9.639;1.762;0.335;1.423;-2.83;0.05;-0.38;-1.421;-0.06;38.0;-20.9;-27.4;-15.7;208.9;-10.0;-80.8;0.0;55.78;39.46897;-0.34101;69.4;NaN;;14.41;;0 / 28;16136;2021-10-27 16:51:40:721
-0.382;9.514;3.635;9.304;1.255;2.835;0.983;-2.03;-2.005;-0.38;-1.421;-0.06;71.0;-22.0;-26.8;-15.0;198.6;-7.3;-73.1;0.0;59.0;39.46897;-0.34101;69.4;NaN;;14.41;;0 / 28;16186;2021-10-27 16:51:40:771
4.16;8.782;-0.198;9.012;-3.816;-0.618;-5.219;1.071;0.664;-0.467;-1.46;0.037;71.0;-22.1;-27.2;-12.8;185.1;21.0;-66.3;0.0;59.0;39.46897;-0.34101;69.4;NaN;;14.41;;0 / 28;16237;2021-10-27 16:51:40:822
0.469;12.686;-0.239;9.735;0.311;-1.14;-0.351;-3.497;3.337;-0.068;-0.829;0.611;71.0;-21.8;-28.0;-10.6;201.6;22.9;-93.9;0.0;59.0;39.46897;-0.34101;69.4;NaN;;14.41;;0 / 28;16287;2021-10-27 16:51:40:872
1.534;8.892;-0.067;9.649;-1.738;-0.302;-0.157;-0.216;0.431;0.269;-0.473;0.884;71.0;-20.6;-29.4;-7.0;193.4;10.2;-91.8;0.0;59.0;39.46897;-0.34101;69.4;NaN;;14.41;;0 / 28;16337;2021-10-27 16:51:40:922
0.792;8.399;-3.14;9.021;-1.12;-3.682;-0.68;1.667;2.863;0.616;-0.204;0.834;71.0;-19.6;-30.4;-4.6;195.0;7.5;-100.7;0.0;59.0;39.46897;-0.34101;69.4;NaN;;14.41;;0 / 28;16387;2021-10-27 16:51:40:972
1.421;7.08;-1.864;9.294;-1.944;-2.466;-0.967;2.635;2.01;0.934;-0.312;0.413;71.0;-17.8;-31.8;-1.3;196.2;5.7;-113.5;0.0;59.0;39.46897;-0.34101;69.4;NaN;;14.41;;0 / 28;16437;2021-10-27 16:51:41:022
1.414;5.617;-2.582;8.744;-2.385;-3.745;-1.159;3.461;1.652;1.301;0.419;0.539;71.0;-16.6;-32.2;0.2;187.6;13.8;-106.0;0.0;59.0;39.46897;-0.34101;69.4;NaN;;14.41;;0 / 28;16487;2021-10-27 16:51:41:072
-0.483;6.273;-3.547;8.514;0.57;-4.836;1.42;3.459;2.5;1.472;0.69;0.153;47.0;-14.9;-32.6;2.2;191.1;-3.2;-122.2;0.0;57.48;39.46897;-0.34101;69.4;NaN;;14.41;;0 / 28;16536;2021-10-27 16:51:41:121
-0.04;7.432;-3.954;8.677;0.014;-4.573;0.991;1.987;2.101;1.325;0.571;-0.016;47.0;-14.2;-32.2;2.6;186.5;-1.0;-116.8;0.0;57.48;39.46897;-0.34101;69.4;NaN;;14.41;;0 / 28;16586;2021-10-27 16:51:41:171
0.378;7.894;-4.796;8.384;-0.345;-5.076;0.271;1.594;2.212;1.369;0.273;-0.47;47.0;-13.1;-32.8;2.9;187.4;1.3;-119.6;0.0;57.48;39.46897;-0.34101;69.4;NaN;;14.41;;0 / 28;16637;2021-10-27 16:51:41:222
-0.38;9.366;-5.266;8.543;0.306;-4.803;0.658;0.532;2.075;1.157;0.23;-0.48;47.0;-12.5;-33.1;2.3;187.1;0.0;-120.9;0.0;57.48;39.46897;-0.34101;69.4;NaN;;14.41;;0 / 28;16687;2021-10-27 16:51:41:272
1.378;11.166;-6.201;8.499;-1.097;-4.769;-1.073;-1.931;2.731;1.157;0.23;-0.48;47.0;-10.4;-33.7;1.3;186.6;3.1;-119.0;0.0;57.48;39.46897;-0.34101;69.4;NaN;;14.41;;0 / 28;16737;2021-10-27 16:51:41:322
2.743;15.819;-4.634;9.318;-1.738;-2.504;-1.585;-6.072;1.823;1.157;0.23;-0.48;47.0;-8.9;-34.0;0.5;185.7;6.6;-112.5;0.0;57.48;39.46897;-0.34101;69.4;NaN;;14.41;;0 / 28;16787;2021-10-27 16:51:41:372
0.39;3.106;-0.196;9.27;-3.026;-1.025;-3.159;-2.823;-3.687;1.157;0.23;-0.48;0.0;-6.8;-34.4;-1.3;183.4;14.8;-98.8;0.0;59.42;39.46897;-0.34101;69.4;NaN;;14.41;;0 / 28;16838;2021-10-27 16:51:41:423
-1.464;6.759;2.259;9.012;2.164;3.203;2.527;4.229;-5.63;-0.196;1.663;-0.134;0.0;-5.6;-35.0;-3.1;183.8;2.7;-92.7;0.0;59.42;39.46897;-0.34101;69.4;NaN;;14.41;;0 / 28;16887;2021-10-27 16:51:41:472
-1.084;12.245;-0.265;9.768;0.824;-0.302;1.64;-1.549;-4.156;-1.63;-1.546;0.31;0.0;-5.2;-35.5;-5.5;189.4;-4.8;-86.6;0.0;59.42;39.46897;-0.34101;69.4;NaN;;14.41;;0 / 28;16937;2021-10-27 16:51:41:522
0.552;8.7;-0.83;9.749;-0.469;-0.958;-0.109;0.192;-1.524;-1.501;-2.775;-0.307;0.0;-5.6;-35.5;-7.3;191.9;1.2;-93.8;0.0;59.42;39.46897;-0.34101;69.4;NaN;;14.41;;0 / 28;16986;2021-10-27 16:51:41:571
-0.253;9.074;1.014;9.725;0.249;1.25;0.228;0.682;-2.533;-1.036;-0.047;-0.252;0.0;-6.4;-35.2;-9.8;194.5;-2.4;-92.6;0.0;59.42;39.46897;-0.34101;69.4;NaN;;14.41;;0 / 28;17037;2021-10-27 16:51:41:622
-0.299;8.772;0.102;9.802;0.35;0.0;0.153;0.946;-1.59;-0.813;0.816;-0.214;0.0;-7.3;-35.0;-11.7;196.1;-1.3;-83.1;0.0;59.42;39.46897;-0.34101;69.4;NaN;;14.41;;0 / 28;17087;2021-10-27 16:51:41:672
0.327;9.337;-0.308;9.797;-0.388;-0.273;-0.196;0.593;-0.554;-0.602;1.564;-0.095;0.0;-8.0;-34.4;-14.6;204.1;1.3;-92.0;0.0;53.3;39.46897;-0.34101;69.4;NaN;;14.41;;0 / 28;17136;2021-10-27 16:51:41:721
0.076;8.968;-0.459;9.797;0.0;-0.474;-0.265;0.807;-0.447;-0.443;1.396;-0.061;10.0;-8.2;-33.7;-16.5;205.4;0.9;-91.5;0.0;53.3;39.46897;-0.34101;69.4;NaN;;14.41;;0 / 28;17187;2021-10-27 16:51:41:772
-0.691;9.43;0.157;9.783;0.718;0.101;0.5;0.83;-0.372;-0.295;1.192;-0.038;10.0;-8.3;-32.7;-19.1;209.1;-2.1;-91.4;0.0;53.3;39.46897;-0.34101;69.4;NaN;;14.41;;0 / 28;17236;2021-10-27 16:51:41:821
0.239;9.699;0.16;9.802;-0.23;0.163;-0.255;0.183;-0.416;-0.22;1.117;-0.039;10.0;-8.6;-32.1;-20.9;212.0;-2.6;-88.1;0.0;53.3;39.46897;-0.34101;69.4;NaN;;14.41;;0 / 28;17287;2021-10-27 16:51:41:872
-0.435;10.371;1.692;9.673;0.263;1.604;0.417;-0.603;-2.031;-0.272;0.85;-0.078;10.0;-9.7;-30.7;-23.8;216.5;-3.5;-81.5;0.0;53.3;39.46897;-0.34101;69.4;NaN;;14.41;;0 / 28;17337;2021-10-27 16:51:41:922
-0.591;10.503;0.667;9.768;0.622;0.599;0.255;-0.763;-0.996;-0.442;0.614;-0.12;10.0;-10.4;-29.7;-25.2;219.1;-3.5;-83.5;0.0;53.3;39.46897;-0.34101;69.4;NaN;;14.41;;0 / 28;17387;2021-10-27 16:51:41:972
-2.57;12.466;3.264;9.385;1.786;2.222;2.422;-2.331;-3.674;-0.706;-0.089;-0.379;10.0;-11.5;-28.1;-27.1;223.2;-7.2;-82.4;0.0;53.3;39.46897;-0.34101;69.4;NaN;;14.41;;0 / 28;17437;2021-10-27 16:51:42:022
0.131;10.362;1.957;9.51;-0.704;2.294;-0.256;-1.767;-3.097;-0.706;-0.089;-0.379;113.0;-12.2;-28.0;-27.9;223.9;-9.8;-77.2;0.0;51.11;39.46897;-0.34101;69.4;NaN;;14.41;;0 / 28;17488;2021-10-27 16:51:42:073
2.709;8.157;1.639;9.155;-3.199;1.46;-3.312;1.642;-0.312;-0.679;-0.201;-0.262;113.0;-12.1;-28.8;-28.5;217.6;16.8;-76.7;0.0;51.11;39.46897;-0.34101;69.4;NaN;;14.41;;0 / 28;17537;2021-10-27 16:51:42:122
1.474;11.3;0.526;9.711;-1.298;0.412;-2.2;-0.596;0.603;-0.459;0.628;0.644;113.0;-11.3;-30.4;-28.3;220.7;10.4;-86.7;0.0;51.11;39.46897;-0.34101;69.4;NaN;;14.41;;0 / 28;17586;2021-10-27 16:51:42:171
1.493;10.034;0.409;9.649;-1.393;1.058;-1.179;-1.008;-0.26;-0.1;1.135;1.013;113.0;-8.2;-34.0;-27.1;218.9;5.9;-86.2;0.0;51.11;39.46897;-0.34101;69.4;NaN;;14.41;;0 / 28;17637;2021-10-27 16:51:42:222
2.628;9.957;0.325;9.495;-2.404;0.508;-2.002;-0.264;0.933;0.213;1.255;0.955;113.0;-5.3;-36.3;-25.0;215.8;10.1;-88.5;0.0;51.11;39.46897;-0.34101;69.4;NaN;;14.41;;0 / 28;17687;2021-10-27 16:51:42:272
0.686;9.555;-0.244;9.778;-0.69;-0.254;-0.681;-0.24;0.98;0.409;1.449;0.721;113.0;-0.1;-40.0;-22.6;210.0;4.0;-91.5;0.0;51.11;39.46897;-0.34101;69.4;NaN;;14.41;;0 / 28;17737;2021-10-27 16:51:42:322
1.575;8.435;-1.917;9.371;-1.963;-2.121;-0.409;1.28;2.753;0.787;1.834;0.426;113.0;3.5;-41.7;-20.5;206.1;6.2;-99.8;0.0;56.29;39.46897;-0.34101;69.4;NaN;;14.41;;0 / 28;17787;2021-10-27 16:51:42:372
2.003;7.331;-1.929;9.117;-2.691;-2.418;-0.966;2.356;2.27;1.047;2.237;0.339;109.0;10.3;-43.5;-17.2;203.0;13.2;-103.7;0.0;56.29;39.46897;-0.34101;69.4;NaN;;14.41;;0 / 28;17837;2021-10-27 16:51:42:422
1.637;8.674;-1.725;9.505;-1.379;-1.992;-1.035;1.887;1.836;1.271;2.567;0.119;109.0;14.5;-44.0;-14.7;197.2;13.3;-105.8;0.0;56.29;39.46897;-0.34101;69.4;NaN;;14.41;;0 / 28;17886;2021-10-27 16:51:42:471
1.558;7.329;-1.677;9.242;-1.911;-2.682;-0.284;1.887;1.336;1.315;2.731;0.014;109.0;20.0;-43.3;-12.0;189.0;11.2;-106.2;0.0;56.29;39.46897;-0.34101;69.4;NaN;;14.41;;0 / 28;17937;2021-10-27 16:51:42:522
-1.151;5.972;-4.368;7.901;1.039;-5.717;1.028;4.071;3.264;1.391;2.586;-0.141;109.0;21.8;-42.5;-10.6;174.6;5.9;-125.3;0.0;56.29;39.46897;-0.34101;69.4;NaN;;14.41;;0 / 28;17987;2021-10-27 16:51:42:572
-2.077;10.003;-4.258;8.959;1.762;-3.572;3.08;-1.128;2.661;1.436;2.083;-0.452;109.0;24.1;-41.4;-8.8;176.9;-12.1;-117.1;0.0;56.29;39.46897;-0.34101;69.4;NaN;;14.41;;0 / 28;18037;2021-10-27 16:51:42:622
-0.416;10.62;-4.851;8.926;0.35;-4.051;1.063;-1.786;2.669;1.178;0.993;-1.04;109.0;24.7;-40.9;-7.4;179.2;-6.8;-109.8;0.0;61.71;39.46897;-0.34101;69.4;NaN;;14.41;;0 / 28;18087;2021-10-27 16:51:42:672
-1.014;12.013;-4.871;8.926;1.192;-3.879;2.327;-1.507;2.691;0.906;0.521;-1.142;109.0;25.6;-40.1;-6.4;169.7;-14.1;-120.9;0.0;61.71;39.46897;-0.34101;69.4;NaN;;14.41;;0 / 28;18137;2021-10-27 16:51:42:722
4.48;11.108;0.107;8.945;-3.984;0.546;-3.54;-3.17;-1.339;0.365;1.448;-0.737;13.0;25.4;-39.7;-6.2;181.5;10.8;-101.5;0.0;61.71;39.46897;-0.34101;69.4;NaN;;14.41;;0 / 28;18187;2021-10-27 16:51:42:772
-1.053;4.148;-0.847;9.404;2.768;-0.359;1.178;5.108;-2.281;-0.009;1.876;-0.353;13.0;23.9;-38.6;-7.1;189.4;14.3;-94.1;0.0;61.71;39.46897;-0.34101;69.4;NaN;;14.41;;0 / 28;18236;2021-10-27 16:51:42:821
0.461;12.506;3.566;9.481;-0.464;2.461;0.18;-2.525;-6.976;-0.956;2.8;-0.213;13.0;22.7;-38.0;-8.2;197.1;-6.4;-78.6;0.0;61.71;39.46897;-0.34101;69.4;NaN;;14.41;;0 / 28;18286;2021-10-27 16:51:42:871
0.545;8.212;-2.518;9.357;-0.46;-2.902;-0.534;-0.247;-1.027;-1.323;3.223;0.079;13.0;20.8;-37.5;-9.7;185.3;2.7;-107.2;0.0;61.71;39.46897;-0.34101;69.4;NaN;;14.41;;0 / 28;18337;2021-10-27 16:51:42:922
-0.047;8.674;1.101;9.744;0.029;1.12;0.67;1.679;-2.098;-1.034;1.892;-0.414;13.0;19.7;-36.8;-11.1;195.8;-3.1;-90.7;0.0;61.71;39.46897;-0.34101;69.4;NaN;;14.41;;0 / 28;18387;2021-10-27 16:51:42:972
-0.892;9.162;2.058;9.515;0.757;2.246;1.531;0.51;-2.684;-0.908;1.256;-0.279;13.0;18.4;-35.8;-13.5;201.1;-4.1;-85.9;0.0;57.47;39.46897;-0.34101;69.4;NaN;;14.41;;0 / 28;18436;2021-10-27 16:51:43:021
-0.61;9.308;-0.055;9.764;0.785;-0.484;0.518;0.546;-0.935;-0.553;-0.078;-0.382;139.0;17.5;-35.2;-15.1;205.8;-2.1;-77.3;0.0;57.47;39.46897;-0.34101;69.4;NaN;;14.41;;0 / 28;18487;2021-10-27 16:51:43:072
0.196;8.997;1.031;9.735;-0.206;1.188;0.023;0.839;-1.388;-0.619;-0.285;-0.379;139.0;16.1;-34.2;-17.2;208.2;-0.9;-84.9;0.0;57.47;39.46897;-0.34101;69.4;NaN;;14.41;;0 / 28;18537;2021-10-27 16:51:43:122
0.002;9.258;0.227;9.802;-0.115;0.172;0.009;0.735;-0.236;-0.477;-0.731;-0.284;139.0;15.2;-33.6;-18.4;208.0;-0.1;-89.7;0.0;57.47;39.46897;-0.34101;69.4;NaN;;14.41;;0 / 28;18587;2021-10-27 16:51:43:172
-0.232;9.5;0.548;9.787;0.0;0.575;-0.252;0.312;-0.277;-0.327;-1.001;-0.212;139.0;13.7;-32.4;-19.8;211.0;-1.1;-85.7;0.0;57.47;39.46897;-0.34101;69.4;NaN;;14.41;;0 / 28;18636;2021-10-27 16:51:43:221
0.177;10.455;1.022;9.773;-0.546;0.608;0.024;-0.562;-1.018;-0.259;-1.076;-0.106;139.0;12.7;-32.1;-20.8;212.9;0.0;-86.6;0.0;57.47;39.46897;-0.34101;69.4;NaN;;14.41;;0 / 28;18686;2021-10-27 16:51:43:271
-0.725;11.247;0.064;9.783;0.225;0.618;0.069;-1.409;-1.862;-0.259;-1.076;-0.106;139.0;11.2;-31.9;-21.9;215.1;-1.3;-86.4;0.0;55.56;39.46897;-0.34101;69.4;NaN;;14.41;;0 / 28;18737;2021-10-27 16:51:43:322
-3.382;12.214;2.721;9.337;2.413;1.791;2.198;-1.185;-0.779;-0.206;-1.343;-0.182;139.0;10.3;-31.8;-22.5;213.8;-7.1;-89.6;0.0;55.56;39.46897;-0.34101;69.4;NaN;;14.41;;0 / 28;18786;2021-10-27 16:51:43:371
-1.742;11.168;2.664;9.409;1.374;2.399;1.547;-2.119;-0.715;-0.159;-1.76;-0.497;244.0;8.6;-31.7;-23.2;216.6;-11.0;-81.1;0.0;55.56;39.46897;-0.34101;69.4;NaN;;14.41;;0 / 28;18836;2021-10-27 16:51:43:421
3.595;7.647;2.925;7.977;-4.664;3.28;-3.257;0.709;-1.875;-0.219;-1.547;-0.351;244.0;7.6;-32.1;-22.9;217.1;-1.4;-75.7;0.0;55.56;39.46897;-0.34101;69.4;NaN;;14.41;;0 / 28;18887;2021-10-27 16:51:43:472
2.719;11.204;-1.036;9.275;-3.175;-0.22;-3.595;-0.047;1.292;-0.694;-0.138;0.473;244.0;7.9;-33.9;-20.6;218.5;28.6;-81.1;0.0;55.56;39.46897;-0.34101;69.4;NaN;;14.41;;0 / 28;18937;2021-10-27 16:51:43:522
1.215;12.355;-1.874;9.668;-0.79;-1.441;-0.299;-3.92;2.731;-0.057;0.161;1.042;244.0;9.1;-35.5;-17.9;205.8;3.0;-95.3;0.0;55.56;39.46897;-0.34101;69.4;NaN;;14.41;;0 / 28;18987;2021-10-27 16:51:43:572
2.032;8.056;-0.11;9.515;-2.337;-0.421;-1.467;1.505;0.344;0.351;0.304;0.949;244.0;11.6;-37.9;-13.1;203.8;9.6;-87.7;0.0;55.56;39.46897;-0.34101;69.4;NaN;;14.41;;0 / 28;19037;2021-10-27 16:51:43:622
0.488;8.193;-3.707;8.859;-0.522;-4.175;0.253;1.513;4.066;0.902;-0.121;0.341;244.0;13.7;-38.8;-9.7;194.0;10.4;-98.8;0.0;55.69;39.46897;-0.34101;69.4;NaN;;14.41;;0 / 28;19087;2021-10-27 16:51:43:672
1.431;6.175;-1.575;9.27;-2.442;-2.069;-0.082;3.217;1.692;1.151;0.385;0.154;244.0;16.6;-39.6;-4.3;178.5;8.9;-106.4;0.0;55.69;39.46897;-0.34101;69.4;NaN;;14.41;;0 / 28;19137;2021-10-27 16:51:43:722
0.679;4.574;-2.805;8.351;-1.298;-4.97;-0.325;5.037;2.278;1.407;0.624;0.164;119.0;18.5;-39.6;-1.4;166.7;14.5;-120.2;0.0;55.69;39.46897;-0.34101;69.4;NaN;;14.41;;0 / 28;19186;2021-10-27 16:51:43:771
-0.05;6.589;-3.363;8.748;0.177;-4.434;1.175;3.792;1.903;1.619;0.496;-0.157;119.0;20.3;-39.1;1.2;163.3;1.1;-122.5;0.0;55.69;39.46897;-0.34101;69.4;NaN;;14.41;;0 / 28;19236;2021-10-27 16:51:43:821
-0.873;8.203;-4.126;8.768;0.886;-4.305;1.757;1.62;2.238;1.421;0.747;-0.275;119.0;21.1;-38.8;1.3;165.2;-1.0;-116.9;0.0;55.69;39.46897;-0.34101;69.4;NaN;;14.41;;0 / 28;19287;2021-10-27 16:51:43:872
0.208;10.419;-4.612;8.993;-0.153;-3.907;1.112;-0.235;1.545;1.297;0.208;-0.612;119.0;21.8;-38.4;0.5;165.6;0.9;-113.5;0.0;55.69;39.46897;-0.34101;69.4;NaN;;14.41;;0 / 28;19337;2021-10-27 16:51:43:922
-1.0;12.389;-6.091;8.533;0.781;-4.769;1.454;-3.096;2.964;0.777;0.358;-0.669;119.0;22.4;-38.2;-0.6;168.5;-2.1;-113.6;0.0;60.8;39.46897;-0.34101;69.4;NaN;;14.41;;0 / 28;19387;2021-10-27 16:51:43:972
0.493;12.779;-5.543;8.72;0.321;-4.477;1.319;-2.919;4.421;0.777;0.358;-0.669;119.0;23.3;-38.0;-1.3;163.5;-2.6;-122.5;0.0;60.8;39.46897;-0.34101;69.4;NaN;;14.41;;0 / 28;19437;2021-10-27 16:51:44:022
2.688;7.707;1.146;9.299;-3.012;0.79;-2.242;-0.3;-3.031;0.316;0.754;-0.312;12.0;23.8;-38.0;-1.9;169.2;6.6;-110.8;0.0;60.8;39.46897;-0.34101;69.4;NaN;;14.41;;0 / 28;19486;2021-10-27 16:51:44:071
-0.21;5.749;0.701;9.73;0.215;1.197;-0.241;4.756;-4.612;0.316;0.754;-0.312;12.0;23.9;-38.1;-2.7;188.7;-1.3;-83.0;0.0;60.8;39.46897;-0.34101;69.4;NaN;;14.41;;0 / 28;19538;2021-10-27 16:51:44:123
-1.108;11.087;-0.153;9.759;0.972;0.034;1.49;-1.616;-2.767;-1.053;2.047;-0.236;12.0;23.5;-37.9;-4.0;185.3;-4.6;-90.8;0.0;60.8;39.46897;-0.34101;69.4;NaN;;14.41;;0 / 28;19587;2021-10-27 16:51:44:172
0.11;8.782;-0.258;9.797;-0.11;-0.436;0.601;-0.535;-2.42;-1.556;2.536;-0.353;12.0;23.5;-38.0;-6.1;188.8;0.6;-87.9;0.0;60.8;39.46897;-0.34101;69.4;NaN;;14.41;;0 / 28;19636;2021-10-27 16:51:44:221
0.071;9.268;0.361;9.773;-0.34;0.752;0.243;0.882;-2.456;-1.107;1.241;-0.557;12.0;23.3;-37.5;-8.0;190.9;-1.7;-89.0;0.0;56.73;39.46897;-0.34101;69.4;NaN;;14.41;;0 / 28;19687;2021-10-27 16:51:44:272
-0.959;9.131;0.672;9.716;1.12;0.742;1.459;0.657;-1.52;-0.79;0.358;-0.389;12.0;23.3;-37.3;-11.2;197.9;-6.6;-85.6;0.0;56.73;39.46897;-0.34101;69.4;NaN;;14.41;;0 / 28;19737;2021-10-27 16:51:44:322
-0.809;8.844;0.078;9.759;0.962;0.134;1.088;1.092;-0.74;-0.659;-0.091;-0.366;12.0;23.2;-36.8;-13.1;198.0;-5.8;-90.7;0.0;56.73;39.46897;-0.34101;69.4;NaN;;14.41;;0 / 28;19787;2021-10-27 16:51:44:372
-0.371;8.59;0.265;9.797;0.402;0.215;0.413;1.028;-1.217;-0.531;-0.475;-0.333;92.0;23.2;-36.4;-16.0;204.1;-2.3;-86.2;0.0;56.73;39.46897;-0.34101;69.4;NaN;;14.41;;0 / 28;19836;2021-10-27 16:51:44:421
-0.198;9.201;0.902;9.72;0.014;1.298;0.079;0.645;-1.189;-0.367;-0.867;-0.296;92.0;23.0;-35.8;-17.7;204.6;-2.2;-90.4;0.0;56.73;39.46897;-0.34101;69.4;NaN;;14.41;;0 / 28;19886;2021-10-27 16:51:44:471
0.698;10.412;0.701;9.744;-0.886;0.632;-0.842;-0.456;-1.05;-0.336;-0.87;-0.164;92.0;22.6;-34.9;-19.9;213.1;5.2;-86.3;0.0;56.73;39.46897;-0.34101;69.4;NaN;;14.41;;0 / 28;19937;2021-10-27 16:51:44:522
-1.096;10.982;1.275;9.73;0.512;1.092;0.405;-1.241;-1.189;-0.4;-0.648;0.112;92.0;22.0;-33.9;-21.2;213.8;-0.9;-84.6;0.0;56.73;39.46897;-0.34101;69.4;NaN;;14.41;;0 / 28;19987;2021-10-27 16:51:44:572
-2.261;11.166;1.208;9.682;1.508;0.345;1.457;-1.106;-0.743;-0.39;-0.681;0.082;92.0;20.2;-33.4;-22.6;213.1;-8.3;-85.0;0.0;55.94;39.46897;-0.34101;69.4;NaN;;14.41;;0 / 28;20036;2021-10-27 16:51:44:621
-2.297;12.6;2.001;9.553;1.561;1.585;2.281;-2.914;-1.315;-0.39;-0.681;0.082;92.0;19.3;-32.9;-23.2;215.4;-12.3;-82.3;0.0;55.94;39.46897;-0.34101;69.4;NaN;;14.41;;0 / 28;20087;2021-10-27 16:51:44:672
2.53;9.49;2.3;9.337;-2.193;2.049;-2.855;0.035;-1.564;-0.39;-0.681;0.082;92.0;18.4;-33.8;-21.9;215.7;2.6;-83.5;0.0;55.94;39.46897;-0.34101;69.4;NaN;;14.41;;0 / 28;20137;2021-10-27 16:51:44:722
5.945;7.525;2.434;7.197;-5.703;3.443;-5.853;2.953;-2.456;-0.39;-0.681;0.082;290.0;18.5;-34.9;-19.5;226.2;33.0;-67.2;0.0;55.94;39.46897;-0.34101;69.4;NaN;;14.41;;0 / 28;20187;2021-10-27 16:51:44:772
1.448;13.428;-0.641;9.701;-1.298;-0.575;-2.685;-2.879;2.389;-0.062;0.094;1.185;290.0;18.8;-36.5;-13.9;204.8;14.2;-96.3;0.0;55.94;39.46897;-0.34101;69.4;NaN;;14.41;;0 / 28;20237;2021-10-27 16:51:44:822
1.101;8.772;0.581;9.711;-1.283;0.512;0.483;0.84;0.765;0.225;0.344;1.124;290.0;19.1;-37.7;-9.3;195.5;2.1;-95.8;0.0;55.94;39.46897;-0.34101;69.4;NaN;;14.41;;0 / 28;20287;2021-10-27 16:51:44:872
0.54;7.47;-3.509;8.753;-0.656;-4.372;0.283;1.823;1.973;0.909;0.177;0.253;290.0;20.3;-38.2;-2.9;170.3;3.8;-116.5;0.0;56.13;39.46897;-0.34101;69.4;NaN;;14.41;;0 / 28;20337;2021-10-27 16:51:44:922
1.663;6.472;-3.173;8.614;-1.762;-4.343;-0.245;2.652;3.822;1.196;0.064;-0.109;290.0;20.9;-38.2;0.9;163.1;6.7;-118.4;0.0;56.13;39.46897;-0.34101;69.4;NaN;;14.41;;0 / 28;20387;2021-10-27 16:51:44:972
1.206;4.411;-3.169;8.03;-2.591;-4.994;-0.849;4.82;2.414;1.727;0.181;0.211;290.0;21.7;-37.3;4.7;156.0;17.4;-120.1;0.0;56.13;39.46897;-0.34101;69.4;NaN;;14.41;;0 / 28;20437;2021-10-27 16:51:45:022
-0.77;6.103;-3.444;8.681;0.958;-4.463;1.222;4.731;2.395;2.131;-0.234;0.219;134.0;21.5;-36.4;6.2;152.4;9.4;-126.5;0.0;56.13;39.46897;-0.34101;69.4;NaN;;14.41;;0 / 28;20487;2021-10-27 16:51:45:072
-1.175;7.877;-4.454;8.447;1.135;-4.855;2.171;1.739;1.127;1.76;0.028;0.016;134.0;21.5;-36.0;6.5;156.7;-6.6;-119.9;0.0;56.13;39.46897;-0.34101;69.4;NaN;;14.41;;0 / 28;20537;2021-10-27 16:51:45:122
0.373;10.35;-5.309;8.729;-0.34;-4.453;1.016;-0.069;1.904;1.228;-0.42;-0.567;134.0;21.4;-35.7;6.3;156.6;-4.0;-121.0;0.0;56.13;39.46897;-0.34101;69.4;NaN;;14.41;;0 / 28;20587;2021-10-27 16:51:45:172
0.66;12.6;-6.402;8.643;-0.57;-4.602;0.135;-3.759;2.565;0.596;0.225;-0.605;134.0;21.4;-35.8;5.2;157.6;2.2;-115.8;0.0;56.13;39.46897;-0.34101;69.4;NaN;;14.41;;0 / 28;20637;2021-10-27 16:51:45:222
1.519;10.838;-5.984;8.657;-1.264;-4.429;-0.639;-0.853;3.568;0.626;0.24;-0.432;134.0;21.5;-35.3;4.8;157.8;3.3;-118.0;0.0;59.99;39.46897;-0.34101;69.4;NaN;;14.41;;0 / 28;20686;2021-10-27 16:51:45:271
2.994;10.575;1.381;9.309;-2.619;1.638;-2.72;-2.306;-4.767;0.626;0.24;-0.432;134.0;21.1;-34.6;3.5;171.2;17.4;-90.5;0.0;59.99;39.46897;-0.34101;69.4;NaN;;14.41;;0 / 28;20738;2021-10-27 16:51:45:323
-2.192;5.737;0.521;9.055;3.539;1.288;2.003;3.219;-3.325;-0.246;1.413;-0.048;134.0;20.8;-34.3;2.6;184.5;5.5;-75.0;0.0;59.99;39.46897;-0.34101;69.4;NaN;;14.41;;0 / 28;20787;2021-10-27 16:51:45:372
0.078;10.62;1.732;9.663;-0.244;1.662;0.913;-1.111;-4.64;-0.246;1.413;-0.048;9.0;20.0;-34.1;0.4;185.3;-15.2;-77.0;0.0;59.99;39.46897;-0.34101;69.4;NaN;;14.41;;0 / 28;20837;2021-10-27 16:51:45:422
0.014;8.825;-0.765;9.764;0.182;-0.905;0.487;-0.175;-2.71;-1.845;2.88;-0.626;9.0;19.7;-34.2;-1.6;187.4;1.4;-80.2;0.0;59.99;39.46897;-0.34101;69.4;NaN;;14.41;;0 / 28;20886;2021-10-27 16:51:45:471
-0.459;8.272;0.397;9.764;0.709;0.603;1.256;1.315;-1.832;-1.184;1.182;-0.785;9.0;19.0;-34.5;-5.1;188.6;-3.4;-89.0;0.0;59.99;39.46897;-0.34101;69.4;NaN;;14.41;;0 / 28;20937;2021-10-27 16:51:45:522
-1.12;8.777;1.309;9.668;1.044;1.283;1.766;0.628;-2.563;-0.985;0.497;-0.485;9.0;19.0;-34.3;-6.8;194.9;-8.3;-81.8;0.0;52.59;39.46897;-0.34101;69.4;NaN;;14.41;;0 / 28;20987;2021-10-27 16:51:45:572
-0.753;9.016;0.263;9.768;0.867;0.206;1.05;0.783;-0.762;-0.542;-0.834;-0.612;9.0;18.4;-33.5;-9.2;193.7;-5.4;-87.8;0.0;52.59;39.46897;-0.34101;69.4;NaN;;14.41;;0 / 28;21037;2021-10-27 16:51:45:622
-0.332;8.684;0.337;9.807;0.168;0.168;0.21;0.999;-0.709;-0.441;-1.129;-0.499;9.0;18.2;-33.0;-10.3;197.4;-3.1;-87.9;0.0;52.59;39.46897;-0.34101;69.4;NaN;;14.41;;0 / 28;21086;2021-10-27 16:51:45:671
-0.292;9.624;1.33;9.72;0.124;1.283;-0.294;0.063;-1.128;-0.311;-1.312;-0.304;9.0;17.9;-32.2;-12.4;202.3;0.0;-86.3;0.0;52.59;39.46897;-0.34101;69.4;NaN;;14.41;;0 / 28;21137;2021-10-27 16:51:45:722
0.598;10.68;1.079;9.735;-0.278;1.164;-0.512;-0.155;-0.91;-0.276;-1.22;-0.058;102.0;17.8;-32.1;-14.0;206.0;1.2;-85.2;0.0;52.59;39.46897;-0.34101;69.4;NaN;;14.41;;0 / 28;21186;2021-10-27 16:51:45:771
-0.682;11.597;1.357;9.72;0.608;1.144;0.213;-1.707;-1.054;-0.359;-1.023;0.057;102.0;17.0;-31.3;-16.0;208.4;-0.1;-83.7;0.0;52.59;39.46897;-0.34101;69.4;NaN;;14.41;;0 / 28;21237;2021-10-27 16:51:45:822
-1.967;10.57;0.313;9.601;1.963;0.431;0.721;-1.329;0.39;-0.304;-1.191;-0.072;102.0;16.3;-31.0;-17.4;210.1;-5.9;-83.7;0.0;55.71;39.46897;-0.34101;69.4;NaN;;14.41;;0 / 28;21287;2021-10-27 16:51:45:872
-2.654;12.425;1.326;9.467;2.011;1.575;2.065;-2.008;-1.54;-0.158;-1.6;-0.39;102.0;15.7;-30.7;-18.1;210.7;-12.2;-83.5;0.0;55.71;39.46897;-0.34101;69.4;NaN;;14.41;;0 / 28;21337;2021-10-27 16:51:45:922
2.678;8.653;3.288;8.902;-2.394;3.352;-1.765;0.022;-3.006;-0.153;-1.68;-0.528;102.0;15.2;-31.0;-18.4;215.6;3.5;-71.6;0.0;55.71;39.46897;-0.34101;69.4;NaN;;14.41;;0 / 28;21386;2021-10-27 16:51:45:971
4.897;10.187;-1.103;8.265;-5.277;0.048;-6.002;2.393;-1.57;-0.153;-1.68;-0.528;102.0;15.2;-32.5;-16.7;221.6;27.2;-70.9;0.0;55.71;39.46897;-0.34101;69.4;NaN;;14.41;;0 / 28;21437;2021-10-27 16:51:46:022
0.713;12.822;-2.616;9.586;-0.622;-1.963;-0.647;-4.487;2.165;-0.167;-0.091;1.002;236.0;16.4;-33.8;-15.0;209.7;18.3;-94.2;0.0;55.71;39.46897;-0.34101;69.4;NaN;;14.41;;0 / 28;21487;2021-10-27 16:51:46:072
1.658;7.858;0.222;9.548;-2.179;0.512;-1.2;1.882;0.392;-0.167;-0.091;1.002;236.0;18.8;-35.5;-10.6;198.4;8.3;-91.1;0.0;55.71;39.46897;-0.34101;69.4;NaN;;14.41;;0 / 28;21537;2021-10-27 16:51:46:122
0.67;8.033;-3.449;8.94;-0.536;-3.998;0.51;1.802;3.803;0.588;-0.347;0.81;236.0;20.9;-36.1;-7.2;181.4;4.2;-106.3;0.0;55.71;39.46897;-0.34101;69.4;NaN;;14.41;;0 / 28;21587;2021-10-27 16:51:46:172
1.084;5.352;-2.601;8.638;-1.604;-4.353;0.135;3.324;3.282;1.283;-0.247;0.098;236.0;23.8;-35.7;-2.6;168.3;3.2;-117.7;0.0;55.09;39.46897;-0.34101;69.4;NaN;;14.41;;0 / 28;21637;2021-10-27 16:51:46:222
0.193;3.688;-4.169;6.934;-0.862;-6.886;0.214;5.536;2.873;1.602;-0.058;0.164;236.0;25.0;-35.9;-0.2;162.2;13.1;-116.2;0.0;55.09;39.46897;-0.34101;69.4;NaN;;14.41;;0 / 28;21687;2021-10-27 16:51:46:272
-0.689;7.214;-3.422;8.954;0.546;-3.96;1.662;2.585;1.501;1.941;-0.236;-0.109;236.0;26.6;-36.0;1.6;159.5;-6.4;-117.7;0.0;55.09;39.46897;-0.34101;69.4;NaN;;14.41;;0 / 28;21737;2021-10-27 16:51:46:322
-0.574;8.806;-4.792;8.701;0.45;-4.506;1.482;0.782;2.29;1.605;-0.039;-0.301;236.0;27.2;-36.9;1.5;161.3;-2.5;-114.1;0.0;55.09;39.46897;-0.34101;69.4;NaN;;14.41;;0 / 28;21787;2021-10-27 16:51:46:372
0.658;10.316;-6.283;8.38;-0.512;-5.071;-0.034;-0.737;2.687;1.065;-0.038;-0.539;5.0;27.5;-37.6;-0.2;160.9;-2.0;-116.8;0.0;55.09;39.46897;-0.34101;69.4;NaN;;14.41;;0 / 28;21837;2021-10-27 16:51:46:422
3.068;11.226;-5.68;8.495;-2.322;-4.31;-1.571;-3.107;2.644;0.676;0.338;-0.347;5.0;27.7;-37.9;-1.9;160.0;2.7;-120.6;0.0;55.09;39.46897;-0.34101;69.4;NaN;;14.41;;0 / 28;21886;2021-10-27 16:51:46:471
4.117;12.88;-2.968;9.184;-2.787;-2.025;-3.592;-3.98;-0.732;0.334;0.797;0.107;5.0;27.5;-38.5;-4.3;173.1;16.0;-105.2;0.0;61.23;39.46897;-0.34101;69.4;NaN;;14.41;;0 / 28;21937;2021-10-27 16:51:46:522
0.22;5.751;2.029;9.299;0.584;3.06;0.315;3.053;-5.663;0.154;0.877;0.205;5.0;26.9;-38.7;-5.6;196.4;6.2;-80.0;0.0;61.23;39.46897;-0.34101;69.4;NaN;;14.41;;0 / 28;21987;2021-10-27 16:51:46:572
-1.852;8.191;2.108;9.361;1.982;2.15;2.71;0.758;-5.27;0.154;0.877;0.205;5.0;25.7;-38.4;-8.2;191.2;-14.6;-86.5;0.0;61.23;39.46897;-0.34101;69.4;NaN;;14.41;;0 / 28;22037;2021-10-27 16:51:46:622
0.572;10.917;1.656;9.687;-0.565;1.408;0.399;-1.645;-4.46;-1.447;1.266;-0.454;5.0;24.5;-38.3;-9.7;196.1;-6.5;-83.1;0.0;61.23;39.46897;-0.34101;69.4;NaN;;14.41;;0 / 28;22087;2021-10-27 16:51:46:672
-0.667;8.143;-1.105;9.687;0.694;-1.369;1.023;0.746;-0.594;-1.802;1.316;-0.897;5.0;22.6;-36.9;-13.0;194.0;-4.1;-98.0;0.0;61.23;39.46897;-0.34101;69.4;NaN;;14.41;;0 / 28;22137;2021-10-27 16:51:46:722
-0.78;8.71;0.99;9.716;0.833;1.049;0.905;1.05;-1.882;-0.994;-0.086;-0.511;3.0;21.7;-36.1;-14.4;202.6;-2.7;-86.3;0.0;61.23;39.46897;-0.34101;69.4;NaN;;14.41;;0 / 28;22187;2021-10-27 16:51:46:772
-0.651;8.878;0.473;9.773;0.675;0.421;0.844;0.72;-1.762;-0.761;-0.508;-0.367;3.0;20.0;-35.1;-16.3;206.5;-5.8;-83.3;0.0;61.23;39.46897;-0.34101;69.4;NaN;;14.41;;0 / 28;22237;2021-10-27 16:51:46:822
-0.667;8.739;0.155;9.778;0.761;0.168;0.639;1.153;-0.605;-0.417;-1.119;-0.302;3.0;18.8;-34.6;-17.4;206.2;-3.9;-87.5;0.0;52.91;39.46897;-0.34101;69.4;NaN;;14.41;;0 / 28;22287;2021-10-27 16:51:46:872
0.033;9.117;-0.301;9.802;0.043;-0.278;0.037;0.832;-0.195;-0.351;-1.201;-0.243;3.0;17.3;-33.7;-19.2;208.6;-0.6;-91.3;0.0;52.91;39.46897;-0.34101;69.4;NaN;;14.41;;0 / 28;22337;2021-10-27 16:51:46:922
0.493;10.524;0.56;9.792;-0.34;0.412;-1.21;0.101;-1.719;-0.248;-1.273;-0.117;3.0;16.3;-32.9;-20.3;214.8;3.4;-80.3;0.0;52.91;39.46897;-0.34101;69.4;NaN;;14.41;;0 / 28;22387;2021-10-27 16:51:46:972
-1.206;10.984;1.35;9.677;1.125;1.125;0.182;-1.081;-1.096;-0.327;-1.076;0.068;3.0;15.1;-31.4;-22.0;215.2;-0.6;-87.2;0.0;52.91;39.46897;-0.34101;69.4;NaN;;14.41;;0 / 28;22437;2021-10-27 16:51:47:022
-1.285;11.226;0.445;9.735;1.12;0.345;0.743;-1.421;-0.452;-0.357;-1.166;-0.048;3.0;13.7;-30.7;-22.8;217.3;-7.6;-83.1;0.0;52.91;39.46897;-0.34101;69.4;NaN;;14.41;;0 / 28;22487;2021-10-27 16:51:47:072
-2.07;13.21;1.768;9.649;1.432;1.03;2.035;-1.507;-1.626;-0.324;-1.408;-0.278;91.0;12.2;-30.0;-23.8;219.0;-8.4;-83.9;0.0;52.91;39.46897;-0.34101;69.4;NaN;;14.41;;0 / 28;22536;2021-10-27 16:51:47:121
-0.225;10.637;2.647;9.486;-0.259;2.466;-0.178;-0.829;-2.165;-0.198;-1.648;-0.448;91.0;11.2;-30.0;-23.7;219.9;-4.9;-80.6;0.0;57.21;39.46897;-0.34101;69.4;NaN;;14.41;;0 / 28;22586;2021-10-27 16:51:47:171
4.234;7.365;2.666;8.116;-4.831;2.638;-4.399;2.275;-1.947;-0.583;-0.58;0.266;91.0;10.1;-31.5;-22.3;220.7;15.4;-77.3;0.0;57.21;39.46897;-0.34101;69.4;NaN;;14.41;;0 / 28;22637;2021-10-27 16:51:47:222
1.73;13.562;-0.955;9.629;-1.456;-1.159;-3.047;-1.551;2.126;-0.294;-0.104;0.893;91.0;10.1;-32.5;-20.0;222.5;29.7;-83.9;0.0;57.21;39.46897;-0.34101;69.4;NaN;;14.41;;0 / 28;22687;2021-10-27 16:51:47:272
0.763;9.897;-0.536;9.711;-1.355;0.268;-0.664;0.643;0.707;-0.294;-0.104;0.893;91.0;11.3;-34.9;-14.9;202.8;5.5;-94.2;0.0;57.21;39.46897;-0.34101;69.4;NaN;;14.41;;0 / 28;22737;2021-10-27 16:51:47:322
1.606;8.078;-0.998;9.515;-1.164;-2.078;-0.744;1.701;1.837;-0.294;-0.104;0.893;91.0;12.5;-35.9;-11.4;197.4;13.5;-94.4;0.0;57.21;39.46897;-0.34101;69.4;NaN;;14.41;;0 / 28;22787;2021-10-27 16:51:47:372
1.35;7.604;-3.473;8.801;-1.48;-4.07;-0.286;1.896;4.228;0.548;0.076;0.842;126.0;14.6;-36.7;-6.6;181.6;6.7;-116.5;0.0;57.21;39.46897;-0.34101;69.4;NaN;;14.41;;0 / 28;22837;2021-10-27 16:51:47:422
1.926;5.22;-1.938;8.61;-2.84;-3.735;-0.782;4.327;1.644;1.215;0.152;0.296;126.0;15.8;-37.2;-4.0;179.6;15.5;-109.3;0.0;57.21;39.46897;-0.34101;69.4;NaN;;14.41;;0 / 28;22887;2021-10-27 16:51:47:472
-0.421;4.516;-3.652;7.441;0.967;-6.316;0.703;5.263;2.141;1.667;0.226;0.273;126.0;17.9;-36.2;-1.0;163.8;0.6;-128.5;0.0;55.74;39.46897;-0.34101;69.4;NaN;;14.41;;0 / 28;22937;2021-10-27 16:51:47:522
-0.433;7.693;-4.667;8.629;0.23;-4.659;1.394;2.18;1.421;1.589;0.276;-0.089;126.0;18.5;-36.1;0.0;168.3;-2.4;-113.5;0.0;55.74;39.46897;-0.34101;69.4;NaN;;14.41;;0 / 28;22986;2021-10-27 16:51:47:571
-0.603;9.969;-4.806;8.801;0.627;-4.281;2.248;0.976;2.501;1.422;-0.168;-0.508;126.0;19.1;-35.2;0.5;163.5;-5.9;-122.7;0.0;55.74;39.46897;-0.34101;69.4;NaN;;14.41;;0 / 28;23036;2021-10-27 16:51:47:621
-0.715;13.502;-4.172;9.141;0.23;-3.543;1.17;-3.607;0.778;0.754;0.051;-0.757;126.0;18.8;-35.0;-0.4;167.5;-0.8;-114.2;0.0;55.74;39.46897;-0.34101;69.4;NaN;;14.41;;0 / 28;23086;2021-10-27 16:51:47:671
-0.423;9.612;-7.477;7.154;0.306;-6.699;0.347;0.459;4.342;0.638;0.223;-0.588;126.0;19.1;-34.3;-1.6;161.5;-1.8;-133.1;0.0;55.74;39.46897;-0.34101;69.4;NaN;;14.41;;0 / 28;23136;2021-10-27 16:51:47:721
5.428;15.522;-1.101;8.973;-3.668;1.48;-3.974;-6.061;-0.914;0.364;0.713;-0.312;0.0;19.4;-34.0;-2.4;172.0;9.2;-109.0;0.0;55.74;39.46897;-0.34101;69.4;NaN;;14.41;;0 / 28;23187;2021-10-27 16:51:47:772
-1.766;4.997;0.323;9.361;2.926;0.048;1.58;3.763;-3.047;-0.22;1.346;-0.106;0.0;19.6;-34.1;-2.6;198.5;16.5;-69.9;0.0;60.38;39.46897;-0.34101;69.4;NaN;;14.41;;0 / 28;23236;2021-10-27 16:51:47:821
-0.792;9.067;0.394;9.754;0.718;0.704;1.632;1.577;-3.333;-0.823;1.722;-0.269;0.0;19.1;-34.0;-3.2;190.5;-21.5;-77.8;0.0;60.38;39.46897;-0.34101;69.4;NaN;;14.41;;0 / 28;23286;2021-10-27 16:51:47:871
-0.167;8.858;-1.139;9.701;0.417;-1.369;0.856;0.357;-1.322;-1.3;2.404;-0.282;0.0;18.2;-33.0;-5.8;190.3;3.6;-90.8;0.0;60.38;39.46897;-0.34101;69.4;NaN;;14.41;;0 / 28;23337;2021-10-27 16:51:47:922
-0.552;8.803;0.579;9.754;0.713;0.747;1.266;1.714;-2.267;-1.149;1.108;-0.878;0.0;17.6;-32.1;-8.0;193.3;-6.6;-90.0;0.0;60.38;39.46897;-0.34101;69.4;NaN;;14.41;;0 / 28;23387;2021-10-27 16:51:47:972
-1.273;9.007;1.304;9.62;1.302;1.393;1.74;0.775;-2.469;-1.065;0.867;-0.753;0.0;17.0;-30.9;-10.8;199.2;-6.6;-85.3;0.0;60.38;39.46897;-0.34101;69.4;NaN;;14.41;;0 / 28;23437;2021-10-27 16:51:48:022
-0.634;9.215;0.414;9.768;0.728;0.45;0.981;0.597;-1.492;-0.737;-0.306;-0.555;67.0;16.1;-30.2;-12.3;202.7;-6.7;-84.1;0.0;60.38;39.46897;-0.34101;69.4;NaN;;14.41;;0 / 28;23487;2021-10-27 16:51:48:072
-0.021;8.83;0.033;9.802;0.182;0.244;0.212;0.782;-1.259;-0.647;-0.669;-0.465;67.0;15.5;-29.5;-13.6;205.4;-1.1;-88.6;0.0;53.99;39.46897;-0.34101;69.4;NaN;;14.41;;0 / 28;23537;2021-10-27 16:51:48:122
-0.442;9.521;0.696;9.773;0.46;0.68;-0.017;0.386;-0.819;-0.486;-1.018;-0.33;67.0;14.6;-28.5;-15.1;208.2;-1.6;-86.9;0.0;53.99;39.46897;-0.34101;69.4;NaN;;14.41;;0 / 28;23586;2021-10-27 16:51:48:171
0.385;10.455;1.634;9.663;-0.235;1.657;0.319;0.101;-1.398;-0.375;-1.031;-0.085;67.0;14.2;-27.2;-16.7;211.6;-4.1;-82.6;0.0;53.99;39.46897;-0.34101;69.4;NaN;;14.41;;0 / 28;23637;2021-10-27 16:51:48:222
0.107;10.862;1.572;9.692;0.445;1.441;-0.271;-0.771;-1.132;-0.355;-0.977;0.018;67.0;13.4;-26.6;-17.6;215.0;2.3;-83.2;0.0;53.99;39.46897;-0.34101;69.4;NaN;;14.41;;0 / 28;23687;2021-10-27 16:51:48:272
-0.485;11.087;0.011;9.797;0.479;-0.014;0.032;-1.032;-0.536;-0.323;-1.012;0.008;67.0;12.4;-25.9;-18.5;215.6;-2.8;-90.1;0.0;53.99;39.46897;-0.34101;69.4;NaN;;14.41;;0 / 28;23737;2021-10-27 16:51:48:322
-2.616;12.346;1.268;9.629;1.628;0.895;2.352;-2.906;-1.599;-0.298;-1.208;-0.213;67.0;11.5;-25.9;-19.0;217.3;-10.5;-80.5;0.0;53.99;39.46897;-0.34101;69.4;NaN;;14.41;;0 / 28;23787;2021-10-27 16:51:48:372
0.978;10.455;1.505;9.687;-0.781;1.312;-1.136;-1.314;-0.888;-0.147;-1.392;-0.316;129.0;10.9;-25.3;-19.3;217.2;-6.2;-82.2;0.0;53.99;39.46897;-0.34101;69.4;NaN;;14.41;;0 / 28;23837;2021-10-27 16:51:48:422
3.391;7.161;2.735;8.068;-4.243;3.62;-3.489;2.204;-2.029;-0.369;-0.864;0.013;129.0;10.1;-25.5;-19.1;220.6;7.7;-79.6;0.0;55.83;39.46897;-0.34101;69.4;NaN;;14.41;;0 / 28;23886;2021-10-27 16:51:48:471
2.257;12.145;-0.854;9.673;-1.437;-0.718;-4.223;0.996;0.107;-0.5;-0.076;0.664;129.0;10.6;-27.1;-17.1;212.9;8.4;-94.2;0.0;55.83;39.46897;-0.34101;69.4;NaN;;14.41;;0 / 28;23936;2021-10-27 16:51:48:521
1.407;9.062;-0.526;9.725;-0.532;-1.149;-0.61;-0.841;2.374;-0.076;-0.058;0.944;129.0;11.6;-28.3;-14.8;207.2;6.5;-96.7;0.0;55.83;39.46897;-0.34101;69.4;NaN;;14.41;;0 / 28;23987;2021-10-27 16:51:48:572
0.911;8.301;-2.551;9.529;-1.317;-1.92;-1.225;0.98;1.536;-0.076;-0.058;0.944;129.0;14.3;-30.4;-10.4;202.5;9.3;-92.8;0.0;55.83;39.46897;-0.34101;69.4;NaN;;14.41;;0 / 28;24037;2021-10-27 16:51:48:622
0.686;7.64;-3.743;8.978;-0.934;-3.84;0.127;2.047;4.061;-0.076;-0.058;0.944;129.0;16.1;-30.6;-7.6;186.1;6.3;-110.7;0.0;55.83;39.46897;-0.34101;69.4;NaN;;14.41;;0 / 28;24087;2021-10-27 16:51:48:672
1.146;5.352;-2.554;8.667;-1.81;-4.219;-0.17;4.102;2.319;-0.076;-0.058;0.944;129.0;19.3;-31.0;-4.6;171.9;10.6;-116.0;0.0;55.83;39.46897;-0.34101;69.4;NaN;;14.41;;0 / 28;24137;2021-10-27 16:51:48:722
0.014;4.33;-4.042;7.12;0.0;-6.742;0.651;5.35;2.646;1.865;0.141;0.071;33.0;20.2;-30.7;-2.9;160.2;3.0;-131.0;0.0;56.7;39.46897;-0.34101;69.4;NaN;;14.41;;0 / 28;24187;2021-10-27 16:51:48:772
-0.545;7.63;-4.339;8.59;0.479;-4.707;1.261;3.428;1.837;1.839;0.245;-0.126;33.0;21.5;-30.4;-1.6;158.0;-0.7;-130.7;0.0;56.7;39.46897;-0.34101;69.4;NaN;;14.41;;0 / 28;24237;2021-10-27 16:51:48:822
-0.679;9.081;-4.66;8.748;0.584;-4.396;1.475;0.42;1.966;1.508;0.079;-0.525;33.0;21.7;-30.2;-1.3;163.0;-3.8;-119.7;0.0;56.7;39.46897;-0.34101;69.4;NaN;;14.41;;0 / 28;24287;2021-10-27 16:51:48:872
-0.227;12.411;-5.031;9.098;0.158;-3.654;0.657;-2.621;1.526;0.771;0.319;-0.677;33.0;21.8;-30.1;-2.1;167.6;-0.8;-112.8;0.0;56.7;39.46897;-0.34101;69.4;NaN;;14.41;;0 / 28;24337;2021-10-27 16:51:48:922
0.603;7.089;-8.045;8.145;-0.551;-5.435;0.446;-3.632;1.801;0.538;0.469;-0.542;33.0;21.5;-30.0;-2.1;168.6;-0.3;-112.1;0.0;56.7;39.46897;-0.34101;69.4;NaN;;14.41;;0 / 28;24387;2021-10-27 16:51:48:972
2.927;12.248;-3.099;9.313;-2.356;-1.963;-1.673;-1.805;0.791;0.691;0.265;-0.328;33.0;21.4;-29.8;-2.2;157.4;-2.5;-132.7;0.0;56.7;39.46897;-0.34101;69.4;NaN;;14.41;;0 / 28;24437;2021-10-27 16:51:49:022
1.967;8.717;2.633;9.064;-2.303;2.959;-4.015;-3.426;-6.766;-0.099;1.218;-0.006;0.0;20.5;-29.7;-2.2;192.6;19.5;-81.7;0.0;56.7;39.46897;-0.34101;69.4;NaN;;14.41;;0 / 28;24487;2021-10-27 16:51:49:072
-2.412;5.514;0.351;9.108;3.467;1.073;2.656;3.041;-0.854;-0.571;1.236;-0.202;0.0;19.3;-29.2;-1.9;177.5;0.3;-99.8;0.0;60.41;39.46897;-0.34098;69.4;NaN;;14.059;;0 / 28;24537;2021-10-27 16:51:49:122
0.296;11.159;0.244;9.802;-0.096;-0.215;-0.043;-1.335;-7.383;-1.767;2.749;-0.266;0.0;18.4;-28.3;-2.3;198.2;-8.3;-63.8;0.0;60.41;39.46897;-0.34098;69.4;NaN;;14.059;;0 / 28;24587;2021-10-27 16:51:49:172
-0.241;8.396;-0.059;9.778;0.278;-0.718;1.489;-0.418;-0.811;-1.755;2.578;-0.603;0.0;16.9;-27.7;-2.9;183.5;-1.6;-94.2;0.0;60.41;39.46897;-0.34098;69.4;NaN;;14.059;;0 / 28;24637;2021-10-27 16:51:49:222
-0.981;8.992;0.344;9.658;1.681;0.239;1.479;0.741;-1.787;-1.755;2.578;-0.603;0.0;16.1;-27.1;-3.5;191.0;-2.0;-85.0;0.0;60.41;39.46897;-0.34098;69.4;NaN;;14.059;;0 / 28;24687;2021-10-27 16:51:49:272
-1.249;8.966;0.524;9.754;0.962;0.268;1.436;0.764;-1.219;-1.755;2.578;-0.603;0.0;14.3;-27.0;-4.8;189.7;-10.0;-86.2;0.0;60.41;39.46897;-0.34098;69.4;NaN;;14.059;;0 / 28;24737;2021-10-27 16:51:49:322
-1.053;8.578;-0.804;9.701;1.164;-0.814;0.825;1.082;0.201;-0.555;0.273;-0.663;0.0;13.3;-26.7;-5.5;190.8;-5.6;-88.4;0.0;60.41;39.46897;-0.34098;69.4;NaN;;14.059;;0 / 28;24786;2021-10-27 16:51:49:371
-0.423;8.442;-0.325;9.797;0.397;-0.316;0.692;1.227;-0.111;-0.385;-0.335;-0.507;28.0;10.7;-26.6;-6.5;193.6;-2.3;-91.8;0.0;54.39;39.46897;-0.34098;69.4;NaN;;14.059;;0 / 28;24837;2021-10-27 16:51:49:422
-0.078;8.916;0.955;9.74;0.077;1.144;-0.636;0.532;-1.21;-0.114;-1.257;-0.297;28.0;8.9;-26.8;-7.3;196.1;0.0;-84.6;0.0;54.39;39.46897;-0.34098;69.4;NaN;;14.059;;0 / 28;24887;2021-10-27 16:51:49:472
-0.16;10.321;0.995;9.754;0.22;0.986;-0.316;-0.231;-1.095;-0.1;-1.447;-0.117;28.0;6.2;-26.4;-8.9;197.8;0.0;-84.0;0.0;54.39;39.46897;-0.34098;69.4;NaN;;14.059;;0 / 28;24936;2021-10-27 16:51:49:521
-0.246;11.7;1.539;9.72;0.306;1.264;-0.251;-1.928;-1.7;-0.531;-0.902;0.108;28.0;4.7;-25.9;-10.9;202.1;-3.0;-83.1;0.0;54.39;39.46897;-0.34098;69.4;NaN;;14.059;;0 / 28;24987;2021-10-27 16:51:49:572
-0.837;10.847;0.272;9.783;0.622;0.34;0.283;-1.751;-0.396;-0.454;-1.746;-0.004;28.0;2.5;-25.6;-13.6;208.4;-3.2;-87.5;0.0;54.39;39.46897;-0.34098;69.4;NaN;;14.059;;0 / 28;25037;2021-10-27 16:51:49:622
-1.776;11.788;0.332;9.706;1.393;0.259;1.527;-2.619;-0.758;-0.108;-3.758;-0.422;28.0;0.8;-25.3;-15.4;211.4;-8.6;-83.3;0.0;54.39;39.46897;-0.34098;69.4;NaN;;14.059;;0 / 28;25087;2021-10-27 16:51:49:672
-0.11;10.733;2.362;9.586;-0.134;2.059;0.443;-1.075;-1.964;-0.005;-3.938;-0.433;28.0;-1.0;-25.6;-17.3;212.7;-5.1;-77.4;0.0;54.39;39.46897;-0.34098;69.4;NaN;;14.059;;0 / 28;25137;2021-10-27 16:51:49:722
3.803;7.942;2.546;8.442;-4.185;2.729;-4.303;1.689;-1.884;-0.368;-2.836;-0.031;49.0;-1.3;-26.1;-18.3;213.3;6.1;-77.2;0.0;58.2;39.46897;-0.34098;69.4;NaN;;14.059;;0 / 28;25187;2021-10-27 16:51:49:772
0.672;13.746;-0.428;9.725;-1.245;-0.096;-3.353;0.495;0.366;-0.524;-1.454;0.629;49.0;-0.2;-28.0;-18.2;213.0;7.3;-90.6;0.0;58.2;39.46897;-0.34098;69.4;NaN;;14.059;;0 / 28;25237;2021-10-27 16:51:49:822
0.313;10.079;-1.395;9.73;-0.474;-1.125;0.155;-1.431;2.885;0.043;-0.966;0.778;49.0;1.7;-29.8;-16.8;208.9;2.5;-99.7;0.0;58.2;39.46897;-0.34098;69.4;NaN;;14.059;;0 / 28;25287;2021-10-27 16:51:49:872
1.259;8.581;-1.371;9.553;-1.307;-1.796;-0.701;1.119;2.024;0.222;-0.792;0.783;49.0;5.3;-32.7;-13.4;205.6;10.0;-94.4;0.0;58.2;39.46897;-0.34098;69.4;NaN;;14.059;;0 / 28;25336;2021-10-27 16:51:49:921
0.021;6.611;-2.601;8.973;-0.12;-3.96;0.544;2.561;3.541;0.631;-0.984;0.446;49.0;8.0;-34.0;-10.9;195.9;7.2;-109.6;0.0;58.2;39.46897;-0.34098;69.4;NaN;;14.059;;0 / 28;25387;2021-10-27 16:51:49:972
0.993;5.201;-2.925;8.59;-2.002;-4.286;-0.339;4.651;2.499;0.631;-0.984;0.446;49.0;11.3;-35.4;-7.7;184.1;11.8;-116.5;0.0;58.2;39.46897;-0.34098;69.4;NaN;;14.059;;0 / 28;25437;2021-10-27 16:51:50:022
-0.617;5.543;-3.566;8.159;0.833;-5.377;1.167;4.773;2.742;1.871;0.276;-0.111;20.0;13.1;-35.7;-6.1;174.9;-4.3;-128.0;0.0;57.28;39.46897;-0.34098;69.4;NaN;;14.059;;0 / 28;25486;2021-10-27 16:51:50:071
-0.691;7.59;-4.272;8.557;0.675;-4.745;1.182;1.981;1.982;1.67;0.521;-0.298;20.0;15.2;-36.1;-4.9;177.8;-2.8;-113.6;0.0;57.28;39.46897;-0.34098;69.4;NaN;;14.059;;0 / 28;25537;2021-10-27 16:51:50:122
-0.201;9.481;-3.827;8.768;0.8;-4.324;1.542;1.949;2.149;1.379;0.308;-0.624;20.0;16.4;-36.5;-5.0;174.2;-7.2;-120.7;0.0;57.28;39.46897;-0.34098;69.4;NaN;;14.059;;0 / 28;25586;2021-10-27 16:51:50:171
-0.943;12.382;-5.069;9.05;0.532;-3.735;-0.065;-1.35;1.834;0.878;0.6;-0.662;20.0;17.8;-36.6;-5.7;178.0;-3.1;-112.4;0.0;57.28;39.46897;-0.34098;69.4;NaN;;14.059;;0 / 28;25636;2021-10-27 16:51:50:221
-0.651;7.133;-6.903;8.03;0.536;-5.602;1.105;-3.189;1.961;0.596;0.679;-0.602;20.0;18.5;-36.2;-6.7;172.1;-3.1;-124.9;0.0;57.28;39.46897;-0.34098;69.4;NaN;;14.059;;0 / 28;25687;2021-10-27 16:51:50:272
3.848;13.99;-2.111;9.088;-1.595;-3.323;0.34;-0.794;2.614;0.603;0.605;-0.509;20.0;19.7;-36.1;-7.0;172.1;-3.7;-124.9;0.0;57.28;39.46897;-0.34098;69.4;NaN;;14.059;;0 / 28;25736;2021-10-27 16:51:50:321
0.514;8.155;0.505;9.735;0.091;-1.192;-1.793;-1.032;-5.81;-0.165;1.564;-0.249;20.0;20.3;-36.1;-7.4;188.8;15.3;-96.9;0.0;57.28;39.46897;-0.34098;69.4;NaN;;14.059;;0 / 28;25787;2021-10-27 16:51:50:372
-1.175;4.849;1.101;9.644;0.934;1.542;1.363;4.081;-4.474;-0.762;1.855;-0.226;0.0;21.1;-36.3;-8.4;197.3;-13.4;-77.8;0.0;60.62;39.46897;-0.34098;69.4;NaN;;14.059;;0 / 28;25836;2021-10-27 16:51:50:421
0.356;10.807;0.078;9.792;-0.431;-0.263;0.068;-2.269;-5.223;-1.582;2.928;-0.142;0.0;21.2;-36.1;-10.0;200.3;-1.5;-80.0;0.0;60.62;39.46897;-0.34098;69.4;NaN;;14.059;;0 / 28;25887;2021-10-27 16:51:50:472
-0.507;8.045;0.067;9.787;0.488;0.373;1.169;1.684;-1.386;-1.231;1.403;-0.631;0.0;20.6;-35.2;-11.7;192.8;0.3;-98.1;0.0;60.62;39.46897;-0.34098;69.4;NaN;;14.059;;0 / 28;25937;2021-10-27 16:51:50:522
-0.95;8.703;0.95;9.74;0.771;0.862;1.113;0.774;-2.207;-1.159;1.215;-0.56;0.0;20.0;-34.9;-13.6;200.9;-2.9;-87.8;0.0;60.62;39.46897;-0.34098;69.4;NaN;;14.059;;0 / 28;25987;2021-10-27 16:51:50:572
-0.615;9.44;0.71;9.773;0.551;0.618;0.862;0.338;-1.671;-1.159;1.215;-0.56;0.0;19.6;-34.0;-15.6;206.6;-5.6;-84.5;0.0;60.62;39.46897;-0.34098;69.4;NaN;;14.059;;0 / 28;26037;2021-10-27 16:51:50:622
-0.598;8.911;0.014;9.787;0.599;0.057;0.684;0.781;-0.261;-1.159;1.215;-0.56;0.0;19.3;-33.7;-17.3;205.4;-3.1;-91.2;0.0;60.62;39.46897;-0.34098;69.4;NaN;;14.059;;0 / 28;26087;2021-10-27 16:51:50:672
-0.198;9.165;0.124;9.802;0.354;0.057;0.064;0.618;-0.492;-1.159;1.215;-0.56;0.0;18.4;-32.6;-19.3;209.6;-2.7;-89.2;0.0;52.26;39.46897;-0.34098;69.4;NaN;;14.059;;0 / 28;26137;2021-10-27 16:51:50:722
-0.04;9.605;1.196;9.74;0.139;1.14;-0.306;0.266;-1.471;-0.318;-0.742;-0.205;11.0;17.6;-31.6;-20.5;211.6;-2.1;-89.7;0.0;52.26;39.46897;-0.34098;69.4;NaN;;14.059;;0 / 28;26187;2021-10-27 16:51:50:772
-0.122;9.95;1.598;9.687;0.23;1.494;-0.081;-0.209;-1.67;-0.392;-0.639;-0.024;11.0;16.6;-30.2;-22.1;218.9;-0.5;-81.3;0.0;52.26;39.46897;-0.34098;69.4;NaN;;14.059;;0 / 28;26236;2021-10-27 16:51:50:821
0.033;10.457;1.491;9.706;-0.062;1.408;-0.245;-0.564;-1.407;-0.484;-0.548;0.037;11.0;16.0;-29.6;-23.2;219.9;-0.3;-81.5;0.0;52.26;39.46897;-0.34098;69.4;NaN;;14.059;;0 / 28;26287;2021-10-27 16:51:50:872
-0.706;10.278;0.404;9.787;0.608;0.196;0.567;-0.885;-0.383;-0.425;-0.689;-0.008;11.0;14.2;-29.5;-24.6;221.6;1.0;-83.4;0.0;52.26;39.46897;-0.34098;69.4;NaN;;14.059;;0 / 28;26337;2021-10-27 16:51:50:922
-2.764;12.652;1.474;9.476;2.313;1.025;2.669;-2.092;-1.999;-0.311;-1.092;-0.324;11.0;13.0;-29.3;-25.0;220.3;-3.6;-88.9;0.0;52.26;39.46897;-0.34098;69.4;NaN;;14.059;;0 / 28;26386;2021-10-27 16:51:50:971
-0.179;10.716;2.357;9.558;-0.024;2.184;-0.174;-0.981;-1.671;-0.17;-1.39;-0.486;11.0;10.9;-29.4;-25.6;223.4;-7.2;-77.3;0.0;56.95;39.46897;-0.34098;69.4;NaN;;14.059;;0 / 28;26437;2021-10-27 16:51:51:022
3.707;8.564;2.233;8.643;-3.974;2.385;-3.551;-0.001;-1.19;-0.266;-1.188;-0.249;61.0;10.1;-29.8;-25.1;224.0;16.2;-78.4;0.0;56.95;39.46897;-0.34098;69.4;NaN;;14.059;;0 / 28;26487;2021-10-27 16:51:51:072
3.02;9.876;-0.739;9.548;-1.901;-1.178;-3.123;-0.461;2.2;-0.562;-0.286;0.491;61.0;9.4;-31.8;-23.0;224.4;25.4;-76.7;0.0;56.95;39.46897;-0.34098;69.4;NaN;;14.059;;0 / 28;26537;2021-10-27 16:51:51:122
1.663;10.429;-0.15;9.701;-1.403;-0.33;-0.683;-2.868;1.356;0.044;-0.074;1.07;61.0;10.0;-33.4;-20.1;214.6;11.2;-97.0;0.0;56.95;39.46897;-0.34098;69.4;NaN;;14.059;;0 / 28;26587;2021-10-27 16:51:51:172
1.665;9.189;-1.187;9.586;-1.757;-1.092;-0.99;0.646;1.439;0.494;-0.068;0.848;61.0;12.4;-35.8;-15.3;202.3;10.3;-96.5;0.0;56.95;39.46897;-0.34098;69.4;NaN;;14.059;;0 / 28;26637;2021-10-27 16:51:51:222
0.138;8.001;-3.533;9.06;-0.321;-3.735;0.198;1.503;3.854;0.494;-0.068;0.848;61.0;14.2;-36.9;-11.5;189.0;2.6;-112.5;0.0;56.95;39.46897;-0.34098;69.4;NaN;;14.059;;0 / 28;26687;2021-10-27 16:51:51:272
0.897;5.945;-2.501;8.926;-1.48;-3.783;0.039;3.038;2.448;0.494;-0.068;0.848;61.0;16.7;-37.9;-6.9;183.2;1.3;-109.9;0.0;56.95;39.46897;-0.34098;69.4;NaN;;14.059;;0 / 28;26737;2021-10-27 16:51:51:322
0.615;5.038;-3.353;8.011;-1.848;-5.349;-0.43;4.415;2.876;1.62;0.226;0.167;61.0;17.6;-38.2;-4.3;174.1;13.7;-117.4;0.0;54.85;39.46897;-0.34098;69.4;NaN;;14.059;;0 / 28;26787;2021-10-27 16:51:51:372
-0.268;7.149;-3.463;8.839;0.555;-4.214;1.207;2.287;1.845;1.62;0.226;0.167;0.0;19.0;-38.1;-2.5;169.8;-2.0;-117.4;0.0;54.85;39.46897;-0.34098;69.4;NaN;;14.059;;0 / 28;26837;2021-10-27 16:51:51:422
-0.631;7.733;-4.365;8.576;0.68;-4.712;1.764;1.704;2.294;1.503;0.437;-0.167;0.0;19.4;-37.9;-1.7;170.2;-3.8;-116.7;0.0;54.85;39.46897;-0.34098;69.4;NaN;;14.059;;0 / 28;26887;2021-10-27 16:51:51:472
0.598;9.512;-4.677;8.82;-0.541;-4.252;0.848;1.222;1.178;1.228;-0.007;-0.553;0.0;19.9;-38.0;-2.2;169.2;-1.9;-117.1;0.0;54.85;39.46897;-0.34098;69.4;NaN;;14.059;;0 / 28;26937;2021-10-27 16:51:51:522
-2.211;11.934;-5.845;8.753;1.336;-4.219;2.26;-2.7;2.68;0.748;0.12;-0.581;0.0;19.9;-38.2;-2.3;169.0;2.0;-116.8;0.0;54.85;39.46897;-0.34098;69.4;NaN;;14.059;;0 / 28;26987;2021-10-27 16:51:51:572
-0.909;6.125;-6.383;6.847;1.02;-6.943;1.087;3.024;2.774;0.692;-0.052;-0.503;0.0;19.7;-38.1;-3.2;164.1;-4.9;-132.1;0.0;54.85;39.46897;-0.34098;69.4;NaN;;14.059;;0 / 28;27037;2021-10-27 16:51:51:622
5.79;16.688;-0.801;9.328;-2.662;-1.437;-3.521;-6.068;-0.525;0.495;0.249;-0.244;0.0;19.7;-38.1;-3.1;174.2;9.6;-108.4;0.0;61.49;39.46897;-0.34098;69.4;NaN;;14.059;;0 / 28;27087;2021-10-27 16:51:51:672
-0.562;6.108;-2.319;9.716;-1.24;-0.565;-2.746;-1.11;-7.178;-0.344;1.316;-0.077;0.0;19.3;-38.2;-4.3;196.9;15.1;-71.5;0.0;61.49;39.46897;-0.34098;69.4;NaN;;14.059;;0 / 28;27137;2021-10-27 16:51:51:722
-0.253;9.667;3.939;8.787;1.14;4.199;1.474;4.281;-5.974;-0.952;1.874;-0.166;0.0;19.3;-38.4;-5.7;183.2;-29.2;-97.7;0.0;61.49;39.46897;-0.34098;69.4;NaN;;14.059;;0 / 28;27187;2021-10-27 16:51:51:772
-0.217;10.206;-0.655;9.764;0.326;-0.876;0.938;-1.063;-2.004;-1.805;3.051;-0.245;0.0;18.5;-38.2;-8.4;192.4;0.4;-89.1;0.0;61.49;39.46897;-0.34098;69.4;NaN;;14.059;;0 / 28;27236;2021-10-27 16:51:51:821
-0.397;8.392;1.759;9.606;0.35;1.954;1.364;1.656;-2.834;-1.553;1.734;-0.849;0.0;18.2;-37.9;-10.6;197.3;-5.5;-85.7;0.0;61.49;39.46897;-0.34098;69.4;NaN;;14.059;;0 / 28;27286;2021-10-27 16:51:51:871
-1.417;8.909;0.167;9.673;1.604;0.283;1.936;0.876;-1.13;-1.531;1.626;-0.737;0.0;17.2;-37.3;-13.7;198.0;-4.2;-90.8;0.0;61.49;39.46897;-0.34098;69.4;NaN;;14.059;;0 / 28;27336;2021-10-27 16:51:51:921
-1.105;8.849;0.095;9.759;0.982;0.153;0.963;0.317;-0.691;-0.748;-0.377;-0.536;0.0;16.4;-36.9;-15.4;201.0;-9.9;-86.5;0.0;61.49;39.46897;-0.34098;69.4;NaN;;14.059;;0 / 28;27387;2021-10-27 16:51:51:972
-0.691;8.892;-0.201;9.764;0.876;-0.244;0.666;1.149;-0.188;-0.453;-1.205;-0.555;0.0;15.4;-36.1;-17.3;204.4;-5.5;-90.4;0.0;54.83;39.46897;-0.34098;69.4;NaN;;14.059;;0 / 28;27437;2021-10-27 16:51:52:022
-0.442;8.341;-0.256;9.792;0.536;-0.144;0.071;1.353;0.361;-0.136;-1.674;-0.357;0.0;14.6;-35.6;-18.1;204.5;-1.1;-95.4;0.0;54.83;39.46897;-0.34098;69.4;NaN;;14.059;;0 / 28;27487;2021-10-27 16:51:52:072
-0.344;9.244;1.625;9.668;0.268;1.628;0.445;0.9;-1.758;-0.049;-1.668;-0.261;44.0;13.7;-34.9;-19.7;209.6;-5.0;-83.7;0.0;54.83;39.46897;-0.34098;69.4;NaN;;14.059;;0 / 28;27537;2021-10-27 16:51:52:122
0.84;10.366;0.792;9.735;-0.79;0.915;-1.023;-0.819;-0.788;-0.234;-1.151;-0.016;44.0;13.0;-34.4;-20.9;211.8;-1.6;-80.4;0.0;54.83;39.46897;-0.34098;69.4;NaN;;14.059;;0 / 28;27587;2021-10-27 16:51:52:172
-0.665;10.661;0.785;9.787;0.077;0.584;0.074;-0.789;-0.585;-0.537;-0.747;0.068;44.0;11.5;-33.7;-22.9;214.9;-1.5;-85.2;0.0;54.83;39.46897;-0.34098;69.4;NaN;;14.059;;0 / 28;27637;2021-10-27 16:51:52:222
-2.324;11.968;1.936;9.448;1.987;1.719;1.132;-1.025;-0.599;-0.404;-0.97;0.014;44.0;10.4;-33.2;-23.6;216.1;-7.2;-86.0;0.0;54.83;39.46897;-0.34098;69.4;NaN;;14.059;;0 / 28;27686;2021-10-27 16:51:52:271
-1.503;12.332;1.685;9.625;1.331;1.341;1.829;-2.299;-0.553;-0.197;-1.531;-0.302;44.0;9.2;-33.2;-24.7;216.2;-12.4;-85.1;0.0;59.58;39.46897;-0.34098;69.4;NaN;;14.059;;0 / 28;27737;2021-10-27 16:51:52:322
1.5;10.618;1.89;9.175;-2.083;2.772;-1.279;-1.347;-0.683;-0.117;-1.546;-0.297;44.0;8.9;-33.3;-24.4;217.7;-5.9;-83.2;0.0;59.58;39.46897;-0.34098;69.4;NaN;;14.059;;0 / 28;27787;2021-10-27 16:51:52:372
3.765;6.563;2.451;7.81;-4.391;3.984;-4.152;2.498;-2.08;-0.565;-0.24;0.44;64.0;8.6;-34.6;-23.5;217.2;26.6;-63.0;0.0;59.58;39.46897;-0.34098;69.4;NaN;;14.059;;0 / 28;27837;2021-10-27 16:51:52:422
2.86;13.828;-0.677;9.639;-1.781;-0.311;-2.191;-2.3;2.5;-0.248;0.342;1.052;64.0;8.9;-36.2;-21.0;210.4;9.4;-97.1;0.0;59.58;39.46897;-0.34098;69.4;NaN;;14.059;;0 / 28;27887;2021-10-27 16:51:52:472
1.771;10.381;-2.345;9.256;-2.351;-2.236;3.047;5.5;2.439;0.214;0.211;0.947;64.0;10.1;-39.0;-16.3;204.2;4.7;-97.4;0.0;59.58;39.46897;-0.34098;69.4;NaN;;14.059;;0 / 28;27937;2021-10-27 16:51:52:522
2.659;10.125;-3.358;9.203;-1.824;-2.854;-0.861;-0.707;2.634;0.551;0.133;0.906;64.0;11.8;-40.7;-13.0;198.7;13.9;-103.6;0.0;59.58;39.46897;-0.34098;69.4;NaN;;14.059;;0 / 28;27986;2021-10-27 16:51:52:571
0.43;6.73;-3.413;7.944;-0.522;-5.727;0.543;3.754;4.478;0.551;0.133;0.906;64.0;14.0;-42.3;-8.0;191.7;9.2;-89.6;0.0;59.97;39.46897;-0.34098;69.4;NaN;;14.059;;0 / 28;28037;2021-10-27 16:51:52:622
1.515;5.175;-2.329;8.643;-2.614;-3.821;-0.611;4.721;2.096;0.551;0.133;0.906;64.0;15.2;-42.8;-5.4;175.2;14.8;-120.0;0.0;59.97;39.46897;-0.34098;69.4;NaN;;14.059;;0 / 28;28087;2021-10-27 16:51:52:672
0.016;6.613;-3.118;8.792;-0.268;-4.338;0.458;4.132;1.966;1.484;0.412;0.133;64.0;16.9;-42.7;-1.6;174.4;10.9;-114.3;0.0;59.97;39.46897;-0.34098;69.4;NaN;;14.059;;0 / 28;28136;2021-10-27 16:51:52:721
-0.682;8.052;-3.413;9.084;0.771;-3.62;1.809;1.822;1.678;1.661;-0.107;-0.178;13.0;17.8;-42.6;-0.4;171.9;-1.2;-114.6;0.0;59.97;39.46897;-0.34098;69.4;NaN;;14.059;;0 / 28;28187;2021-10-27 16:51:52:772
-0.483;7.511;-4.198;8.557;0.426;-4.769;0.665;2.323;1.984;1.314;0.226;-0.323;13.0;19.1;-42.4;0.4;167.8;-2.5;-119.1;0.0;59.97;39.46897;-0.34098;69.4;NaN;;14.059;;0 / 28;28237;2021-10-27 16:51:52:822
-0.033;10.931;-2.812;9.572;0.215;-2.131;0.929;-1.194;0.427;0.838;0.099;-0.647;13.0;19.9;-42.6;-0.1;169.8;-2.0;-113.0;0.0;59.97;39.46897;-0.34098;69.4;NaN;;14.059;;0 / 28;28287;2021-10-27 16:51:52:872
-0.32;10.453;-5.507;8.557;0.311;-4.779;0.726;-2.79;0.968;0.447;0.49;-0.664;13.0;20.0;-42.4;-0.8;174.8;-0.7;-104.1;0.0;59.97;39.46897;-0.34098;69.4;NaN;;14.059;;0 / 28;28337;2021-10-27 16:51:52:922
1.23;6.843;-8.411;6.302;-0.57;-7.494;-0.687;2.852;5.242;0.375;0.579;-0.516;13.0;20.5;-42.0;-1.0;168.2;-1.8;-119.2;0.0;60.55;39.46897;-0.34098;69.4;NaN;;14.059;;0 / 28;28386;2021-10-27 16:51:52:971
3.116;13.945;-0.622;9.61;-1.935;-0.263;-2.401;-4.848;-3.077;0.464;0.768;-0.117;13.0;21.2;-41.8;-0.6;175.8;13.0;-99.9;0.0;60.55;39.46897;-0.34098;69.4;NaN;;14.059;;0 / 28;28437;2021-10-27 16:51:53:022
0.799;8.217;0.533;9.778;-0.737;0.148;-0.338;0.257;-5.131;-0.18;1.599;-0.046;21.0;21.5;-41.5;-0.6;187.3;5.4;-78.6;0.0;60.55;39.46897;-0.34098;69.4;NaN;;14.059;;0 / 28;28487;2021-10-27 16:51:53:072
1.895;8.076;2.046;9.357;-1.757;2.361;-1.038;1.462;-5.489;-0.245;1.5;-0.037;21.0;21.2;-42.1;-1.9;176.3;0.0;-100.1;0.0;60.55;39.46897;-0.34098;69.4;NaN;;14.059;;0 / 28;28536;2021-10-27 16:51:53:121
0.591;10.649;-0.093;9.692;-0.68;-1.322;0.979;-0.242;-4.377;-1.495;3.426;-0.23;21.0;20.5;-42.4;-3.3;197.2;8.6;-60.5;0.0;60.55;39.46897;-0.34098;69.4;NaN;;14.059;;0 / 28;28586;2021-10-27 16:51:53:171
0.904;10.117;-1.4;9.189;-0.417;-3.395;0.781;0.564;1.691;-1.146;2.26;-0.54;21.0;20.0;-42.1;-5.4;138.0;-56.9;165.8;0.0;60.55;39.46897;-0.34098;69.4;NaN;;14.059;;0 / 28;28636;2021-10-27 16:51:53:221
3.173;12.494;-3.686;9.318;-1.279;-2.782;1.227;2.034;-1.942;-1.227;1.974;-0.573;21.0;19.3;-41.9;-6.7;199.3;-10.6;-61.3;0.0;59.95;39.46897;-0.34098;69.4;NaN;;14.059;;0 / 28;28687;2021-10-27 16:51:53:272
1.249;11.087;-0.153;9.677;-1.58;0.096;0.538;-2.2;1.906;-0.158;-0.746;-0.392;21.0;18.4;-41.2;-8.9;184.5;1.0;-103.7;0.0;59.95;39.46897;-0.34098;69.4;NaN;;14.059;;0 / 28;28736;2021-10-27 16:51:53:321
-0.026;10.859;-0.61;9.787;0.062;-0.637;0.394;-1.005;-0.498;-0.158;-0.746;-0.392;21.0;17.9;-41.1;-10.3;199.9;20.0;-83.9;0.0;59.95;39.46897;-0.34098;69.4;NaN;;14.059;;0 / 28;28786;2021-10-27 16:51:53:371
-1.876;11.295;-0.722;9.735;0.881;-0.8;1.708;-1.53;0.277;-0.197;-0.645;0.136;45.0;17.6;-40.3;-12.7;200.1;-6.3;-82.6;0.0;59.95;39.46897;-0.34098;69.4;NaN;;14.059;;0 / 28;28836;2021-10-27 16:51:53:421
1.0;7.537;4.794;8.37;-1.346;4.927;2.016;0.632;-0.92;-0.459;-0.579;-0.14;45.0;18.1;-39.5;-14.2;206.0;0.6;-71.6;0.0;59.95;39.46897;-0.34098;69.4;NaN;;14.059;;0 / 28;28887;2021-10-27 16:51:53:472
-0.497;13.588;-0.785;9.802;-0.091;-0.345;1.641;-4.098;0.448;-0.296;-1.333;-0.531;45.0;18.1;-38.0;-15.9;206.5;5.0;-78.6;0.0;59.95;39.46897;-0.34098;69.4;NaN;;14.059;;0 / 28;28936;2021-10-27 16:51:53:521
-3.094;11.815;4.43;8.389;1.111;4.961;2.039;-4.417;-1.254;-0.222;-1.413;-0.504;45.0;17.9;-37.3;-17.0;200.0;0.1;-96.7;0.0;59.95;39.46897;-0.34098;69.4;NaN;;14.059;;0 / 28;28987;2021-10-27 16:51:53:572
-0.038;8.547;-0.198;9.448;-0.163;-2.634;-0.186;1.497;-1.764;-0.501;-0.877;-0.42;45.0;17.0;-35.7;-19.4;211.4;-2.5;-77.1;0.0;61.44;39.46897;-0.34098;69.4;NaN;;14.059;;0 / 28;29036;2021-10-27 16:51:53:621
2.214;9.775;0.289;9.577;0.283;-2.097;0.848;-3.261;-0.966;-0.172;-1.363;-0.459;45.0;17.2;-34.9;-21.1;203.1;-0.6;-107.3;5.0;61.44;39.46897;-0.34098;69.4;NaN;;14.059;;0 / 28;29087;2021-10-27 16:51:53:672
-1.345;9.344;6.692;8.921;0.819;3.998;0.678;0.668;-6.991;-0.632;-0.68;-0.3;45.0;17.0;-31.9;-25.1;219.2;-7.3;-74.2;5.0;61.44;39.46897;-0.34098;69.4;NaN;;14.059;;0 / 28;29136;2021-10-27 16:51:53:721
0.201;6.106;5.5;7.259;-0.048;6.594;-0.586;3.053;-4.689;-0.806;-0.551;-0.213;191.0;16.6;-29.5;-27.7;224.4;-4.8;-65.9;5.0;61.44;39.46897;-0.34098;69.4;NaN;;14.059;;0 / 28;29187;2021-10-27 16:51:53:772
-2.343;7.267;3.707;8.035;2.241;5.162;2.043;2.242;-1.903;-1.649;0.565;0.17;191.0;15.2;-25.1;-32.3;236.6;-18.7;-62.6;5.0;61.44;39.46897;-0.34098;69.4;NaN;;14.059;;0 / 28;29236;2021-10-27 16:51:53:821
0.478;-0.354;3.805;-0.421;-1.307;9.711;0.135;8.5;-1.806;-2.331;1.043;0.139;191.0;15.2;-20.9;-34.6;234.7;-9.4;-12.4;5.0;61.44;39.46897;-0.34098;69.4;NaN;;14.059;;0 / 28;29287;2021-10-27 16:51:53:872
-1.273;1.704;4.595;3.989;3.385;8.294;1.021;7.055;-0.501;-2.41;1.057;0.272;191.0;16.0;-12.4;-36.9;217.2;7.5;0.2;5.0;62.07;39.46897;-0.34098;69.4;NaN;;14.059;;0 / 28;29337;2021-10-27 16:51:53:922
0.457;2.319;7.269;4.836;-3.05;7.968;-0.391;5.447;-1.116;-3.149;1.565;0.732;191.0;17.6;-6.4;-37.5;271.0;-20.2;-25.7;5.0;62.07;39.46897;-0.34098;69.4;NaN;;14.059;;0 / 28;29387;2021-10-27 16:51:53:972
-1.867;2.527;11.448;1.03;0.388;9.744;2.319;8.822;-30.133;-4.163;2.426;3.8;191.0;18.5;0.0;-37.8;273.7;-2.3;-6.0;5.0;62.07;39.46897;-0.34098;69.4;NaN;;14.059;;0 / 28;29436;2021-10-27 16:51:54:021
0.373;3.671;7.53;4.482;-0.244;8.72;0.656;3.25;2.387;-2.829;0.647;-0.109;424.0;19.3;1.6;-37.8;278.3;-7.6;-29.4;5.0;62.07;39.46897;-0.34098;69.4;NaN;;14.059;;0 / 28;29487;2021-10-27 16:51:54:072
-1.287;3.035;9.55;2.5;1.336;9.39;0.773;2.08;-0.853;-2.193;-0.096;-0.922;424.0;19.4;2.3;-38.2;270.3;3.6;-19.1;0.0;62.07;39.46897;-0.34098;69.4;NaN;;14.059;;0 / 28;29537;2021-10-27 16:51:54:122
-0.837;1.962;11.752;2.011;0.278;9.596;0.37;2.667;-3.18;-0.972;-0.537;-2.146;424.0;19.6;3.0;-37.9;284.6;-7.8;-14.9;0.0;62.07;39.46897;-0.34098;69.4;NaN;;14.059;;0 / 28;29587;2021-10-27 16:51:54:172
0.189;2.879;6.168;3.639;-0.239;9.108;-0.648;1.404;-0.741;-0.74;-0.604;-1.3;424.0;19.9;4.7;-38.1;277.5;1.4;-21.8;0.0;62.07;39.46897;-0.34098;69.4;NaN;;14.059;;0 / 28;29637;2021-10-27 16:51:54:222
-0.706;0.495;9.495;0.268;0.575;9.787;0.602;3.131;1.626;-0.606;-0.503;-1.155;424.0;19.9;5.4;-38.0;292.2;-15.1;-18.3;0.0;43.15;39.46897;-0.34098;69.4;NaN;;14.059;;0 / 28;29686;2021-10-27 16:51:54:271
1.275;2.029;8.595;2.739;-1.762;9.251;-2.019;1.317;0.574;-0.654;-0.487;-0.504;424.0;19.6;5.6;-38.0;276.4;5.2;-9.7;5.0;43.15;39.46897;-0.34098;69.4;NaN;;14.059;;0 / 28;29737;2021-10-27 16:51:54:322
0.019;3.504;3.607;6.713;-0.369;7.14;-2.023;0.049;4.701;-0.299;-0.711;-0.414;424.0;19.4;4.7;-37.8;268.8;10.4;-16.5;5.0;43.15;39.46897;-0.34098;69.4;NaN;;14.059;;0 / 28;29787;2021-10-27 16:51:54:372
-0.052;4.976;8.767;5.507;-0.407;8.102;-0.038;-1.486;0.284;0.125;-0.645;-0.564;855.0;19.3;2.9;-38.1;277.8;-3.5;-25.7;5.0;43.15;39.46897;-0.34098;69.4;NaN;;14.059;;0 / 28;29836;2021-10-27 16:51:54:421
2.154;2.506;12.726;1.891;-1.829;9.448;-1.902;0.695;-3.399;0.36;-0.732;-0.5;855.0;17.8;2.6;-38.8;265.8;8.2;-12.3;5.0;43.15;39.46897;-0.34098;69.4;NaN;;14.059;;0 / 28;29886;2021-10-27 16:51:54:471
1.165;3.401;9.536;3.409;-1.03;9.136;-1.687;0.795;-2.796;-0.029;-0.397;-0.117;855.0;14.9;4.0;-40.0;265.0;8.5;-12.7;5.0;43.15;39.46897;-0.34098;69.4;NaN;;14.059;;0 / 28;29937;2021-10-27 16:51:54:522
1.208;3.528;8.392;3.735;-1.211;8.988;-0.276;-0.3;0.949;-0.123;-0.344;-0.056;855.0;12.7;5.0;-40.4;276.2;3.5;-22.7;5.0;39.92;39.46897;-0.34098;69.4;NaN;;14.059;;0 / 28;29986;2021-10-27 16:51:54:571
0.787;3.793;10.187;3.457;-0.766;9.146;-0.559;-0.665;-0.54;-0.123;-0.446;-0.28;855.0;10.3;5.2;-40.9;274.6;5.0;-21.9;5.0;39.92;39.46897;-0.34098;69.4;NaN;;14.059;;0 / 28;30037;2021-10-27 16:51:54:622
1.8;4.009;7.956;4.314;-1.762;8.629;-0.748;-0.601;1.01;0.142;-0.567;-0.973;855.0;9.8;4.2;-41.2;270.6;6.4;-25.1;5.0;39.92;39.46897;-0.34098;69.4;NaN;;14.059;;0 / 28;30087;2021-10-27 16:51:54:672
1.172;4.114;9.012;4.113;-1.235;8.815;-0.719;-0.653;0.078;0.114;-0.596;-0.949;855.0;8.8;3.8;-41.4;267.7;8.5;-24.8;5.0;39.92;39.46897;-0.34098;69.4;NaN;;14.059;;0 / 28;30137;2021-10-27 16:51:54:722
1.692;4.856;9.809;4.223;-1.456;8.729;-0.881;-1.308;-0.611;0.121;-0.597;-0.755;1101.0;8.0;3.8;-41.2;262.2;16.7;-36.6;5.0;39.92;39.46897;-0.34098;69.4;NaN;;14.059;;0 / 28;30187;2021-10-27 16:51:54:772
1.555;4.011;7.197;4.63;-1.839;8.452;-0.562;-0.39;1.708;0.152;-0.593;-0.62;1101.0;7.3;3.3;-41.4;264.1;9.5;-26.6;5.0;39.92;39.46897;-0.34098;69.4;NaN;;14.059;;0 / 28;30236;2021-10-27 16:51:54:821